File: resources/all_cols_post_scrape.csv
steel_type,C,Mn,P,S,Si,Ni,Cr,Mo,V,Cu,final_hardness_post_tempering_HRC,yield_strength_MPa,ultimate_strength_MPA,tempering_time_s,tempering_temperature_C
AISI-SAE 1026,0.25,0.79,0.012,0.026,0.11,0.0,0.0,0.0,0.0,0.0,50.6,415,490,600,204.4
AISI-SAE 1026,0.25,0.79,0.012,0.026,0.11,0.0,0.0,0.0,0.0,0.0,40.5,415,490,600,371.1
AISI-SAE 1026,0.25,0.79,0.012,0.026,0.11,0.0,0.0,0.0,0.0,0.0,26.2,415,490,600,537.8
AISI-SAE 1026,0.25,0.79,0.012,0.026,0.11,0.0,0.0,0.0,0.0,0.0,11.7,415,490,600,704.4
AISI-SAE 1026,0.25,0.79,0.012,0.026,0.11,0.0,0.0,0.0,0.0,0.0,42.5,415,490,3600,315.6
AISI-SAE 1026,0.25,0.79,0.012,0.026,0.11,0.0,0.0,0.0,0.0,0.0,28.5,415,490,3600,482.2
AISI-SAE 1026,0.25,0.79,0.012,0.026,0.11,0.0,0.0,0.0,0.0,0.0,8.6,415,490,3600,704.4
AISI-SAE 1026,0.25,0.79,0.012,0.026,0.11,0.0,0.0,0.0,0.0,0.0,40.9,415,490,14400,315.6
AISI-SAE 1026,0.25,0.79,0.012,0.026,0.11,0.0,0.0,0.0,0.0,0.0,26.2,415,490,14400,482.2
AISI-SAE 1026,0.25,0.79,0.012,0.026,0.11,0.0,0.0,0.0,0.0,0.0,9.4,415,490,14400,648.9
AISI-SAE 1026,0.25,0.79,0.012,0.026,0.11,0.0,0.0,0.0,0.0,0.0,43.4,415,490,86400,260.0
AISI-SAE 1026,0.25,0.79,0.012,0.026,0.11,0.0,0.0,0.0,0.0,0.0,28.4,415,490,86400,426.7
AISI-SAE 1026,0.25,0.79,0.012,0.026,0.11,0.0,0.0,0.0,0.0,0.0,10.9,415,490,86400,593.3
AISI-SAE 1030,0.31,0.57,0.008,0.025,0.09,0.02,0.02,0.0,0.0,0.0,52.1,440,525,600,204.4
AISI-SAE 1030,0.31,0.57,0.008,0.025,0.09,0.02,0.02,0.0,0.0,0.0,40.2,440,525,600,371.1
AISI-SAE 1030,0.31,0.57,0.008,0.025,0.09,0.02,0.02,0.0,0.0,0.0,25.8,440,525,600,537.8
AISI-SAE 1030,0.31,0.57,0.008,0.025,0.09,0.02,0.02,0.0,0.0,0.0,13.1,440,525,600,704.4
AISI-SAE 1030,0.31,0.57,0.008,0.025,0.09,0.02,0.02,0.0,0.0,0.0,42.2,440,525,3600,315.6
AISI-SAE 1030,0.31,0.57,0.008,0.025,0.09,0.02,0.02,0.0,0.0,0.0,29.0,440,525,3600,482.2
AISI-SAE 1030,0.31,0.57,0.008,0.025,0.09,0.02,0.02,0.0,0.0,0.0,10.2,440,525,3600,704.4
AISI-SAE 1030,0.31,0.57,0.008,0.025,0.09,0.02,0.02,0.0,0.0,0.0,40.9,440,525,14400,315.6
AISI-SAE 1030,0.31,0.57,0.008,0.025,0.09,0.02,0.02,0.0,0.0,0.0,25.6,440,525,14400,482.2
AISI-SAE 1030,0.31,0.57,0.008,0.025,0.09,0.02,0.02,0.0,0.0,0.0,8.6,440,525,14400,648.9
AISI-SAE 1030,0.31,0.57,0.008,0.025,0.09,0.02,0.02,0.0,0.0,0.0,43.9,440,525,86400,260.0
AISI-SAE 1030,0.31,0.57,0.008,0.025,0.09,0.02,0.02,0.0,0.0,0.0,27.8,440,525,86400,426.7
AISI-SAE 1030,0.31,0.57,0.008,0.025,0.09,0.02,0.02,0.0,0.0,0.0,6.5,440,525,86400,593.3
AISI-SAE 1035,0.36,0.74,0.019,0.03,0.24,0.02,0.02,0.01,0.0,0.0,52.3,370,585,600,204.4
AISI-SAE 1035,0.36,0.74,0.019,0.03,0.24,0.02,0.02,0.01,0.0,0.0,44.3,370,585,600,371.1
AISI-SAE 1035,0.36,0.74,0.019,0.03,0.24,0.02,0.02,0.01,0.0,0.0,28.4,370,585,600,537.8
AISI-SAE 1035,0.36,0.74,0.019,0.03,0.24,0.02,0.02,0.01,0.0,0.0,15.0,370,585,600,704.4
AISI-SAE 1035,0.36,0.74,0.019,0.03,0.24,0.02,0.02,0.01,0.0,0.0,46.4,370,585,3600,315.6
AISI-SAE 1035,0.36,0.74,0.019,0.03,0.24,0.02,0.02,0.01,0.0,0.0,30.7,370,585,3600,482.2
AISI-SAE 1035,0.36,0.74,0.019,0.03,0.24,0.02,0.02,0.01,0.0,0.0,16.5,370,585,3600,648.9
AISI-SAE 1035,0.36,0.74,0.019,0.03,0.24,0.02,0.02,0.01,0.0,0.0,48.3,370,585,14400,260.0
AISI-SAE 1035,0.36,0.74,0.019,0.03,0.24,0.02,0.02,0.01,0.0,0.0,33.9,370,585,14400,426.7
AISI-SAE 1035,0.36,0.74,0.019,0.03,0.24,0.02,0.02,0.01,0.0,0.0,18.9,370,585,14400,593.3
AISI-SAE 1035,0.36,0.74,0.019,0.03,0.24,0.02,0.02,0.01,0.0,0.0,49.1,370,585,86400,204.4
AISI-SAE 1035,0.36,0.74,0.019,0.03,0.24,0.02,0.02,0.01,0.0,0.0,36.9,370,585,86400,371.1
AISI-SAE 1035,0.36,0.74,0.019,0.03,0.24,0.02,0.02,0.01,0.0,0.0,20.7,370,585,86400,537.8
AISI-SAE 1035,0.36,0.74,0.019,0.03,0.24,0.02,0.02,0.01,0.0,0.0,5.0,370,585,86400,704.4
AISI-SAE 1038,0.39,0.75,0.048,0.043,0.18,0.0,0.0,0.0,0.0,0.0,46.0,485,570,3600,315.6
AISI-SAE 1038,0.39,0.75,0.048,0.043,0.18,0.0,0.0,0.0,0.0,0.0,32.5,485,570,3600,482.2
AISI-SAE 1038,0.39,0.75,0.048,0.043,0.18,0.0,0.0,0.0,0.0,0.0,18.2,485,570,3600,648.9
AISI-SAE 1040,0.4,0.6,0.01,0.013,0.27,0.02,0.07,0.01,0.0,0.0,48.9,415,620,600,315.6
AISI-SAE 1040,0.4,0.6,0.01,0.013,0.27,0.02,0.07,0.01,0.0,0.0,35.1,415,620,600,482.2
AISI-SAE 1040,0.4,0.6,0.01,0.013,0.27,0.02,0.07,0.01,0.0,0.0,24.1,415,620,600,648.9
AISI-SAE 1040,0.4,0.6,0.01,0.013,0.27,0.02,0.07,0.01,0.0,0.0,50.4,415,620,3600,260.0
AISI-SAE 1040,0.4,0.6,0.01,0.013,0.27,0.02,0.07,0.01,0.0,0.0,37.9,415,620,3600,426.7
AISI-SAE 1040,0.4,0.6,0.01,0.013,0.27,0.02,0.07,0.01,0.0,0.0,24.6,415,620,3600,593.3
AISI-SAE 1040,0.4,0.6,0.01,0.013,0.27,0.02,0.07,0.01,0.0,0.0,51.0,415,620,14400,204.4
AISI-SAE 1040,0.4,0.6,0.01,0.013,0.27,0.02,0.07,0.01,0.0,0.0,41.2,415,620,14400,371.1
AISI-SAE 1040,0.4,0.6,0.01,0.013,0.27,0.02,0.07,0.01,0.0,0.0,26.5,415,620,14400,537.8
AISI-SAE 1040,0.4,0.6,0.01,0.013,0.27,0.02,0.07,0.01,0.0,0.0,12.6,415,620,14400,704.4
AISI-SAE 1040,0.4,0.6,0.01,0.013,0.27,0.02,0.07,0.01,0.0,0.0,44.9,415,620,86400,315.6
AISI-SAE 1040,0.4,0.6,0.01,0.013,0.27,0.02,0.07,0.01,0.0,0.0,27.8,415,620,86400,482.2
AISI-SAE 1040,0.4,0.6,0.01,0.013,0.27,0.02,0.07,0.01,0.0,0.0,14.0,415,620,86400,648.9
AISI-SAE 1042,0.44,0.79,0.02,0.03,0.24,0.02,0.02,0.01,0.0,0.0,53.6,580,700,600,260.0
AISI-SAE 1042,0.44,0.79,0.02,0.03,0.24,0.02,0.02,0.01,0.0,0.0,42.0,580,700,600,426.7
AISI-SAE 1042,0.44,0.79,0.02,0.03,0.24,0.02,0.02,0.01,0.0,0.0,28.4,580,700,600,593.3
AISI-SAE 1042,0.44,0.79,0.02,0.03,0.24,0.02,0.02,0.01,0.0,0.0,54.5,580,700,3600,204.4
AISI-SAE 1042,0.44,0.79,0.02,0.03,0.24,0.02,0.02,0.01,0.0,0.0,44.7,580,700,3600,371.1
AISI-SAE 1042,0.44,0.79,0.02,0.03,0.24,0.02,0.02,0.01,0.0,0.0,29.5,580,700,3600,537.8
AISI-SAE 1042,0.44,0.79,0.02,0.03,0.24,0.02,0.02,0.01,0.0,0.0,13.5,580,700,3600,704.4
AISI-SAE 1042,0.44,0.79,0.02,0.03,0.24,0.02,0.02,0.01,0.0,0.0,48.0,580,700,14400,315.6
AISI-SAE 1042,0.44,0.79,0.02,0.03,0.24,0.02,0.02,0.01,0.0,0.0,32.3,580,700,14400,482.2
AISI-SAE 1042,0.44,0.79,0.02,0.03,0.24,0.02,0.02,0.01,0.0,0.0,15.9,580,700,14400,648.9
AISI-SAE 1042,0.44,0.79,0.02,0.03,0.24,0.02,0.02,0.01,0.0,0.0,49.8,580,700,86400,260.0
AISI-SAE 1042,0.44,0.79,0.02,0.03,0.24,0.02,0.02,0.01,0.0,0.0,34.6,580,700,86400,426.7
AISI-SAE 1042,0.44,0.79,0.02,0.03,0.24,0.02,0.02,0.01,0.0,0.0,17.1,580,700,86400,593.3
AISI-SAE 1045,0.45,0.73,0.017,0.03,0.17,0.01,0.02,0.01,0.0,0.0,56.9,450,585,600,204.4
AISI-SAE 1045,0.45,0.73,0.017,0.03,0.17,0.01,0.02,0.01,0.0,0.0,48.0,450,585,600,371.1
AISI-SAE 1045,0.45,0.73,0.017,0.03,0.17,0.01,0.02,0.01,0.0,0.0,33.4,450,585,600,537.8
AISI-SAE 1045,0.45,0.73,0.017,0.03,0.17,0.01,0.02,0.01,0.0,0.0,18.5,450,585,600,704.4
AISI-SAE 1045,0.45,0.73,0.017,0.03,0.17,0.01,0.02,0.01,0.0,0.0,50.2,450,585,3600,315.6
AISI-SAE 1045,0.45,0.73,0.017,0.03,0.17,0.01,0.02,0.01,0.0,0.0,35.6,450,585,3600,482.2
AISI-SAE 1045,0.45,0.73,0.017,0.03,0.17,0.01,0.02,0.01,0.0,0.0,20.3,450,585,3600,648.9
AISI-SAE 1045,0.45,0.73,0.017,0.03,0.17,0.01,0.02,0.01,0.0,0.0,52.6,450,585,14400,260.0
AISI-SAE 1045,0.45,0.73,0.017,0.03,0.17,0.01,0.02,0.01,0.0,0.0,38.4,450,585,14400,426.7
AISI-SAE 1045,0.45,0.73,0.017,0.03,0.17,0.01,0.02,0.01,0.0,0.0,22.4,450,585,14400,593.3
AISI-SAE 1045,0.45,0.73,0.017,0.03,0.17,0.01,0.02,0.01,0.0,0.0,53.8,450,585,86400,204.4
AISI-SAE 1045,0.45,0.73,0.017,0.03,0.17,0.01,0.02,0.01,0.0,0.0,41.7,450,585,86400,371.1
AISI-SAE 1045,0.45,0.73,0.017,0.03,0.17,0.01,0.02,0.01,0.0,0.0,24.2,450,585,86400,537.8
AISI-SAE 1045,0.45,0.73,0.017,0.03,0.17,0.01,0.02,0.01,0.0,0.0,9.9,450,585,86400,704.4
AISI-SAE 1049,0.48,0.76,0.046,0.048,0.14,0.0,0.0,0.0,0.0,0.0,49.0,640,750,3600,315.6
AISI-SAE 1049,0.48,0.76,0.046,0.048,0.14,0.0,0.0,0.0,0.0,0.0,35.5,640,750,3600,482.2
AISI-SAE 1049,0.48,0.76,0.046,0.048,0.14,0.0,0.0,0.0,0.0,0.0,19.0,640,750,3600,648.9
AISI-SAE 1050,0.5,0.91,0.046,0.041,0.13,0.0,0.0,0.0,0.0,0.0,45.8,580,690,600,426.7
AISI-SAE 1050,0.5,0.91,0.046,0.041,0.13,0.0,0.0,0.0,0.0,0.0,54.0,580,690,3600,260.0
AISI-SAE 1050,0.5,0.91,0.046,0.041,0.13,0.0,0.0,0.0,0.0,0.0,41.0,580,690,3600,426.7
AISI-SAE 1050,0.5,0.91,0.046,0.041,0.13,0.0,0.0,0.0,0.0,0.0,27.2,580,690,3600,593.3
AISI-SAE 1050,0.5,0.91,0.046,0.041,0.13,0.0,0.0,0.0,0.0,0.0,48.7,580,690,86400,315.6
AISI-SAE 1065,0.63,0.87,0.023,0.018,0.17,0.02,0.04,0.0,0.0,0.0,58.3,490,635,3600,204.4
AISI-SAE 1065,0.63,0.87,0.023,0.018,0.17,0.02,0.04,0.0,0.0,0.0,49.5,490,635,3600,371.1
AISI-SAE 1065,0.63,0.87,0.023,0.018,0.17,0.02,0.04,0.0,0.0,0.0,34.5,490,635,3600,537.8
AISI-SAE 1065,0.63,0.87,0.023,0.018,0.17,0.02,0.04,0.0,0.0,0.0,16.7,490,635,3600,704.4
AISI-SAE 1065,0.65,0.87,0.04,0.042,0.19,0.0,0.0,0.0,0.0,0.0,53.5,490,635,3600,315.6
AISI-SAE 1065,0.65,0.87,0.04,0.042,0.19,0.0,0.0,0.0,0.0,0.0,41.5,490,635,3600,482.2
AISI-SAE 1065,0.65,0.87,0.04,0.042,0.19,0.0,0.0,0.0,0.0,0.0,25.8,490,635,3600,648.9
AISI-SAE 1080,0.82,0.75,0.054,0.055,0.3,0.0,0.0,0.0,0.0,0.0,50.0,535,820,600,426.7
AISI-SAE 1080,0.82,0.75,0.054,0.055,0.3,0.0,0.0,0.0,0.0,0.0,59.5,535,820,3600,260.0
AISI-SAE 1080,0.82,0.75,0.054,0.055,0.3,0.0,0.0,0.0,0.0,0.0,47.0,535,820,3600,426.7
AISI-SAE 1080,0.82,0.75,0.054,0.055,0.3,0.0,0.0,0.0,0.0,0.0,32.5,535,820,3600,593.3
AISI-SAE 1080,0.82,0.75,0.054,0.055,0.3,0.0,0.0,0.0,0.0,0.0,53.5,535,820,86400,315.6
AISI-SAE 1335,0.35,1.85,0.02,0.026,0.19,0.01,0.03,0.0,0.0,0.0,44.9,300,550,40,426.7
AISI-SAE 1335,0.35,1.85,0.02,0.026,0.19,0.01,0.03,0.0,0.0,0.0,30.9,300,550,40,648.9
AISI-SAE 1335,0.35,1.85,0.02,0.026,0.19,0.01,0.03,0.0,0.0,0.0,33.0,300,550,120,593.3
AISI-SAE 1335,0.35,1.85,0.02,0.026,0.19,0.01,0.03,0.0,0.0,0.0,34.8,300,550,300,537.8
AISI-SAE 1335,0.35,1.85,0.02,0.026,0.19,0.01,0.03,0.0,0.0,0.0,39.9,300,550,900,426.7
AISI-SAE 1335,0.35,1.85,0.02,0.026,0.19,0.01,0.03,0.0,0.0,0.0,25.5,300,550,900,648.9
AISI-SAE 1335,0.35,1.85,0.02,0.026,0.19,0.01,0.03,0.0,0.0,0.0,46.8,300,550,3600,315.6
AISI-SAE 1335,0.35,1.85,0.02,0.026,0.19,0.01,0.03,0.0,0.0,0.0,34.3,300,550,3600,482.2
AISI-SAE 1335,0.35,1.85,0.02,0.026,0.19,0.01,0.03,0.0,0.0,0.0,21.8,300,550,3600,648.9
AISI-SAE 1335,0.35,1.85,0.02,0.026,0.19,0.01,0.03,0.0,0.0,0.0,37.9,300,550,7200,426.7
AISI-SAE 1335,0.35,1.85,0.02,0.026,0.19,0.01,0.03,0.0,0.0,0.0,50.8,300,550,14400,204.4
AISI-SAE 1335,0.35,1.85,0.02,0.026,0.19,0.01,0.03,0.0,0.0,0.0,27.7,300,550,14400,537.8
AISI-SAE 1335,0.35,1.85,0.02,0.026,0.19,0.01,0.03,0.0,0.0,0.0,46.5,300,550,28800,315.6
AISI-SAE 1335,0.35,1.85,0.02,0.026,0.19,0.01,0.03,0.0,0.0,0.0,14.8,300,550,28800,648.9
AISI-SAE 1335,0.35,1.85,0.02,0.026,0.19,0.01,0.03,0.0,0.0,0.0,36.8,300,550,57600,426.7
AISI-SAE 1335,0.35,1.85,0.02,0.026,0.19,0.01,0.03,0.0,0.0,0.0,50.3,300,550,115200,204.4
AISI-SAE 1335,0.35,1.85,0.02,0.026,0.19,0.01,0.03,0.0,0.0,0.0,24.2,300,550,115200,537.8
AISI-SAE 4027,0.26,0.87,0.015,0.03,0.29,0.03,0.06,0.26,0.0,0.0,46.4,325,515,600,260.0
AISI-SAE 4027,0.26,0.87,0.015,0.03,0.29,0.03,0.06,0.26,0.0,0.0,38.0,325,515,600,426.7
AISI-SAE 4027,0.26,0.87,0.015,0.03,0.29,0.03,0.06,0.26,0.0,0.0,28.6,325,515,600,593.3
AISI-SAE 4027,0.26,0.87,0.015,0.03,0.29,0.03,0.06,0.26,0.0,0.0,49.0,325,515,3600,204.4
AISI-SAE 4027,0.26,0.87,0.015,0.03,0.29,0.03,0.06,0.26,0.0,0.0,39.7,325,515,3600,371.1
AISI-SAE 4027,0.26,0.87,0.015,0.03,0.29,0.03,0.06,0.26,0.0,0.0,29.7,325,515,3600,537.8
AISI-SAE 4027,0.26,0.87,0.015,0.03,0.29,0.03,0.06,0.26,0.0,0.0,15.5,325,515,3600,704.4
AISI-SAE 4027,0.26,0.87,0.015,0.03,0.29,0.03,0.06,0.26,0.0,0.0,41.5,325,515,14400,315.6
AISI-SAE 4027,0.26,0.87,0.015,0.03,0.29,0.03,0.06,0.26,0.0,0.0,32.0,325,515,14400,482.2
AISI-SAE 4027,0.26,0.87,0.015,0.03,0.29,0.03,0.06,0.26,0.0,0.0,19.0,325,515,14400,648.9
AISI-SAE 4027,0.26,0.87,0.015,0.03,0.29,0.03,0.06,0.26,0.0,0.0,44.2,325,515,86400,260.0
AISI-SAE 4027,0.26,0.87,0.015,0.03,0.29,0.03,0.06,0.26,0.0,0.0,34.1,325,515,86400,426.7
AISI-SAE 4027,0.26,0.87,0.015,0.03,0.29,0.03,0.06,0.26,0.0,0.0,23.0,325,515,86400,593.3
AISI-SAE 4037,0.35,0.8,0.022,0.028,0.24,0.06,0.06,0.25,0.0,0.0,52.6,290,540,600,204.4
AISI-SAE 4037,0.35,0.8,0.022,0.028,0.24,0.06,0.06,0.25,0.0,0.0,45.0,290,540,600,371.1
AISI-SAE 4037,0.35,0.8,0.022,0.028,0.24,0.06,0.06,0.25,0.0,0.0,35.6,290,540,600,537.8
AISI-SAE 4037,0.35,0.8,0.022,0.028,0.24,0.06,0.06,0.25,0.0,0.0,23.0,290,540,600,704.4
AISI-SAE 4037,0.35,0.8,0.022,0.028,0.24,0.06,0.06,0.25,0.0,0.0,47.0,290,540,3600,315.6
AISI-SAE 4037,0.35,0.8,0.022,0.028,0.24,0.06,0.06,0.25,0.0,0.0,37.0,290,540,3600,482.2
AISI-SAE 4037,0.35,0.8,0.022,0.028,0.24,0.06,0.06,0.25,0.0,0.0,25.0,290,540,3600,648.9
AISI-SAE 4037,0.35,0.8,0.022,0.028,0.24,0.06,0.06,0.25,0.0,0.0,48.1,290,540,14400,260.0
AISI-SAE 4037,0.35,0.8,0.022,0.028,0.24,0.06,0.06,0.25,0.0,0.0,39.5,290,540,14400,426.7
AISI-SAE 4037,0.35,0.8,0.022,0.028,0.24,0.06,0.06,0.25,0.0,0.0,29.5,290,540,14400,593.3
AISI-SAE 4037,0.35,0.8,0.022,0.028,0.24,0.06,0.06,0.25,0.0,0.0,50.7,290,540,86400,204.4
AISI-SAE 4037,0.35,0.8,0.022,0.028,0.24,0.06,0.06,0.25,0.0,0.0,41.5,290,540,86400,371.1
AISI-SAE 4037,0.35,0.8,0.022,0.028,0.24,0.06,0.06,0.25,0.0,0.0,31.5,290,540,86400,537.8
AISI-SAE 4037,0.35,0.8,0.022,0.028,0.24,0.06,0.06,0.25,0.0,0.0,9.5,290,540,86400,704.4
AISI-SAE 4047,0.48,0.94,0.015,0.03,0.16,0.04,0.03,0.25,0.0,0.0,50.7,310,580,600,315.6
AISI-SAE 4047,0.48,0.94,0.015,0.03,0.16,0.04,0.03,0.25,0.0,0.0,41.6,310,580,600,482.2
AISI-SAE 4047,0.48,0.94,0.015,0.03,0.16,0.04,0.03,0.25,0.0,0.0,29.5,310,580,600,648.9
AISI-SAE 4047,0.48,0.94,0.015,0.03,0.16,0.04,0.03,0.25,0.0,0.0,51.5,310,580,3600,260.0
AISI-SAE 4047,0.48,0.94,0.015,0.03,0.16,0.04,0.03,0.25,0.0,0.0,43.2,310,580,3600,426.7
AISI-SAE 4047,0.48,0.94,0.015,0.03,0.16,0.04,0.03,0.25,0.0,0.0,33.0,310,580,3600,593.3
AISI-SAE 4047,0.48,0.94,0.015,0.03,0.16,0.04,0.03,0.25,0.0,0.0,55.0,310,580,14400,204.4
AISI-SAE 4047,0.48,0.94,0.015,0.03,0.16,0.04,0.03,0.25,0.0,0.0,46.0,310,580,14400,371.1
AISI-SAE 4047,0.48,0.94,0.015,0.03,0.16,0.04,0.03,0.25,0.0,0.0,35.5,310,580,14400,537.8
AISI-SAE 4047,0.48,0.94,0.015,0.03,0.16,0.04,0.03,0.25,0.0,0.0,14.0,310,580,14400,704.4
AISI-SAE 4047,0.48,0.94,0.015,0.03,0.16,0.04,0.03,0.25,0.0,0.0,47.5,310,580,86400,315.6
AISI-SAE 4047,0.48,0.94,0.015,0.03,0.16,0.04,0.03,0.25,0.0,0.0,38.0,310,580,86400,482.2
AISI-SAE 4047,0.48,0.94,0.015,0.03,0.16,0.04,0.03,0.25,0.0,0.0,16.5,310,580,86400,648.9
AISI-SAE 4140,0.41,0.88,0.016,0.018,0.23,0.0,1.02,0.22,0.0,0.0,60.3,415,655,10,150.0
AISI-SAE 4140,0.41,0.88,0.016,0.018,0.23,0.0,1.02,0.22,0.0,0.0,56.2,415,655,10,300.0
AISI-SAE 4140,0.41,0.88,0.016,0.018,0.23,0.0,1.02,0.22,0.0,0.0,45.9,415,655,10,600.0
AISI-SAE 4140,0.37,0.77,0.019,0.026,0.15,0.04,0.98,0.21,0.0,0.0,42.7,415,655,40,537.8
AISI-SAE 4140,0.41,0.88,0.016,0.018,0.23,0.0,1.02,0.22,0.0,0.0,58.8,415,655,90,100.0
AISI-SAE 4140,0.41,0.88,0.016,0.018,0.23,0.0,1.02,0.22,0.0,0.0,57.2,415,655,90,250.0
AISI-SAE 4140,0.37,0.77,0.019,0.026,0.15,0.04,0.98,0.21,0.0,0.0,41.4,415,655,120,537.8
AISI-SAE 4140,0.37,0.77,0.019,0.026,0.15,0.04,0.98,0.21,0.0,0.0,46.3,415,655,300,426.7
AISI-SAE 4140,0.37,0.77,0.019,0.026,0.15,0.04,0.98,0.21,0.0,0.0,33.8,415,655,300,648.9
AISI-SAE 4140,0.41,0.88,0.016,0.018,0.23,0.0,1.02,0.22,0.0,0.0,58.0,415,655,900,200.0
AISI-SAE 4140,0.41,0.88,0.016,0.018,0.23,0.0,1.02,0.22,0.0,0.0,50.3,415,655,900,400.0
AISI-SAE 4140,0.37,0.77,0.019,0.026,0.15,0.04,0.98,0.21,0.0,0.0,34.6,415,655,900,593.3
AISI-SAE 4140,0.41,0.88,0.016,0.018,0.23,0.0,1.02,0.22,0.0,0.0,50.9,415,655,3600,250.0
AISI-SAE 4140,0.37,0.77,0.019,0.026,0.15,0.04,0.98,0.21,0.0,0.0,48.7,415,655,3600,315.6
AISI-SAE 4140,0.37,0.77,0.019,0.026,0.15,0.04,0.98,0.21,0.0,0.0,45.0,415,655,3600,426.7
AISI-SAE 4140,0.37,0.77,0.019,0.026,0.15,0.04,0.98,0.21,0.0,0.0,38.2,415,655,3600,537.8
AISI-SAE 4140,0.37,0.77,0.019,0.026,0.15,0.04,0.98,0.21,0.0,0.0,31.2,415,655,3600,648.9
AISI-SAE 4140,0.37,0.77,0.019,0.026,0.15,0.04,0.98,0.21,0.0,0.0,48.3,415,655,7200,315.6
AISI-SAE 4140,0.37,0.77,0.019,0.026,0.15,0.04,0.98,0.21,0.0,0.0,27.8,415,655,7200,648.9
AISI-SAE 4140,0.41,0.88,0.016,0.018,0.23,0.0,1.02,0.22,0.0,0.0,52.2,415,655,9000,200.0
AISI-SAE 4140,0.41,0.88,0.016,0.018,0.23,0.0,1.02,0.22,0.0,0.0,43.1,415,655,9000,400.0
AISI-SAE 4140,0.41,0.88,0.016,0.018,0.23,0.0,1.02,0.22,0.0,0.0,19.4,415,655,9000,700.0
AISI-SAE 4140,0.37,0.77,0.019,0.026,0.15,0.04,0.98,0.21,0.0,0.0,43.8,415,655,14400,426.7
AISI-SAE 4140,0.37,0.77,0.019,0.026,0.15,0.04,0.98,0.21,0.0,0.0,52.9,415,655,28800,204.4
AISI-SAE 4140,0.37,0.77,0.019,0.026,0.15,0.04,0.98,0.21,0.0,0.0,35.2,415,655,28800,537.8
AISI-SAE 4140,0.37,0.77,0.019,0.026,0.15,0.04,0.98,0.21,0.0,0.0,49.5,415,655,57600,315.6
AISI-SAE 4140,0.37,0.77,0.019,0.026,0.15,0.04,0.98,0.21,0.0,0.0,23.3,415,655,57600,648.9
AISI-SAE 4140,0.41,0.88,0.016,0.018,0.23,0.0,1.02,0.22,0.0,0.0,50.4,415,655,86400,200.0
AISI-SAE 4140,0.41,0.88,0.016,0.018,0.23,0.0,1.02,0.22,0.0,0.0,40.9,415,655,86400,400.0
AISI-SAE 4140,0.37,0.77,0.019,0.026,0.15,0.04,0.98,0.21,0.0,0.0,52.6,415,655,115200,204.4
AISI-SAE 4140,0.37,0.77,0.019,0.026,0.15,0.04,0.98,0.21,0.0,0.0,34.1,415,655,115200,537.8
AISI-SAE 4340,0.39,0.75,0.019,0.016,0.26,1.74,0.79,0.26,0.0,0.0,55.4,470,745,10,150.0
AISI-SAE 4340,0.39,0.75,0.019,0.016,0.26,1.74,0.79,0.26,0.0,0.0,53.9,470,745,10,300.0
AISI-SAE 4340,0.39,0.75,0.019,0.016,0.26,1.74,0.79,0.26,0.0,0.0,44.1,470,745,10,600.0
AISI-SAE 4340,0.42,0.78,0.018,0.027,0.24,1.79,0.8,0.33,0.0,0.0,44.0,470,745,40,537.8
AISI-SAE 4340,0.39,0.75,0.019,0.016,0.26,1.74,0.79,0.26,0.0,0.0,55.9,470,745,90,100.0
AISI-SAE 4340,0.39,0.75,0.019,0.016,0.26,1.74,0.79,0.26,0.0,0.0,54.5,470,745,90,250.0
AISI-SAE 4340,0.39,0.75,0.019,0.016,0.26,1.74,0.79,0.26,0.0,0.0,45.0,470,745,90,500.0
AISI-SAE 4340,0.42,0.78,0.018,0.027,0.24,1.79,0.8,0.33,0.0,0.0,47.6,470,745,120,426.7
AISI-SAE 4340,0.42,0.78,0.018,0.027,0.24,1.79,0.8,0.33,0.0,0.0,37.4,470,745,120,648.9
AISI-SAE 4340,0.42,0.78,0.018,0.027,0.24,1.79,0.8,0.33,0.0,0.0,40.0,470,745,300,593.3
AISI-SAE 4340,0.39,0.75,0.019,0.016,0.26,1.74,0.79,0.26,0.0,0.0,56.1,470,745,900,150.0
AISI-SAE 4340,0.39,0.75,0.019,0.016,0.26,1.74,0.79,0.26,0.0,0.0,49.8,470,745,900,300.0
AISI-SAE 4340,0.39,0.75,0.019,0.016,0.26,1.74,0.79,0.26,0.0,0.0,38.1,470,745,900,500.0
AISI-SAE 4340,0.39,0.75,0.019,0.016,0.26,1.74,0.79,0.26,0.0,0.0,33.6,470,745,900,600.0
AISI-SAE 4340,0.42,0.78,0.018,0.027,0.24,1.79,0.8,0.33,0.0,0.0,54.9,470,745,3600,204.4
AISI-SAE 4340,0.39,0.75,0.019,0.016,0.26,1.74,0.79,0.26,0.0,0.0,48.1,470,745,3600,300.0
AISI-SAE 4340,0.39,0.75,0.019,0.016,0.26,1.74,0.79,0.26,0.0,0.0,43.8,470,745,3600,400.0
AISI-SAE 4340,0.39,0.75,0.019,0.016,0.26,1.74,0.79,0.26,0.0,0.0,37.5,470,745,3600,500.0
AISI-SAE 4340,0.39,0.75,0.019,0.016,0.26,1.74,0.79,0.26,0.0,0.0,31.9,470,745,3600,600.0
AISI-SAE 4340,0.42,0.78,0.018,0.027,0.24,1.79,0.8,0.33,0.0,0.0,54.5,470,745,7200,204.4
AISI-SAE 4340,0.42,0.78,0.018,0.027,0.24,1.79,0.8,0.33,0.0,0.0,39.2,470,745,7200,537.8
AISI-SAE 4340,0.39,0.75,0.019,0.016,0.26,1.74,0.79,0.26,0.0,0.0,52.1,470,745,9000,150.0
AISI-SAE 4340,0.39,0.75,0.019,0.016,0.26,1.74,0.79,0.26,0.0,0.0,45.6,470,745,9000,300.0
AISI-SAE 4340,0.39,0.75,0.019,0.016,0.26,1.74,0.79,0.26,0.0,0.0,23.2,470,745,9000,600.0
AISI-SAE 4340,0.42,0.78,0.018,0.027,0.24,1.79,0.8,0.33,0.0,0.0,49.3,470,745,14400,315.6
AISI-SAE 4340,0.42,0.78,0.018,0.027,0.24,1.79,0.8,0.33,0.0,0.0,23.6,470,745,14400,648.9
AISI-SAE 4340,0.42,0.78,0.018,0.027,0.24,1.79,0.8,0.33,0.0,0.0,44.3,470,745,28800,426.7
AISI-SAE 4340,0.42,0.78,0.018,0.027,0.24,1.79,0.8,0.33,0.0,0.0,53.3,470,745,57600,204.4
AISI-SAE 4340,0.42,0.78,0.018,0.027,0.24,1.79,0.8,0.33,0.0,0.0,37.9,470,745,57600,537.8
AISI-SAE 4340,0.39,0.75,0.019,0.016,0.26,1.74,0.79,0.26,0.0,0.0,51.0,470,745,86400,150.0
AISI-SAE 4340,0.39,0.75,0.019,0.016,0.26,1.74,0.79,0.26,0.0,0.0,44.2,470,745,86400,300.0
AISI-SAE 4340,0.39,0.75,0.019,0.016,0.26,1.74,0.79,0.26,0.0,0.0,21.3,470,745,86400,600.0
AISI-SAE 4340,0.42,0.78,0.018,0.027,0.24,1.79,0.8,0.33,0.0,0.0,49.3,470,745,115200,315.6
AISI-SAE 4340,0.42,0.78,0.018,0.027,0.24,1.79,0.8,0.33,0.0,0.0,17.7,470,745,115200,648.9
AISI-SAE 4640,0.36,0.63,0.018,0.021,0.19,1.84,0.06,0.23,0.0,0.0,36.7,1103,1276,40,593.3
AISI-SAE 4640,0.36,0.63,0.018,0.021,0.19,1.84,0.06,0.23,0.0,0.0,39.0,1103,1276,120,537.8
AISI-SAE 4640,0.36,0.63,0.018,0.021,0.19,1.84,0.06,0.23,0.0,0.0,42.5,1103,1276,300,426.7
AISI-SAE 4640,0.36,0.63,0.018,0.021,0.19,1.84,0.06,0.23,0.0,0.0,30.7,1103,1276,300,648.9
AISI-SAE 4640,0.36,0.63,0.018,0.021,0.19,1.84,0.06,0.23,0.0,0.0,33.9,1103,1276,900,593.3
AISI-SAE 4640,0.36,0.63,0.018,0.021,0.19,1.84,0.06,0.23,0.0,0.0,49.9,1103,1276,3600,260.0
AISI-SAE 4640,0.36,0.63,0.018,0.021,0.19,1.84,0.06,0.23,0.0,0.0,40.7,1103,1276,3600,426.7
AISI-SAE 4640,0.36,0.63,0.018,0.021,0.19,1.84,0.06,0.23,0.0,0.0,31.2,1103,1276,3600,593.3
AISI-SAE 4640,0.36,0.63,0.018,0.021,0.19,1.84,0.06,0.23,0.0,0.0,46.5,1103,1276,7200,315.6
AISI-SAE 4640,0.36,0.63,0.018,0.021,0.19,1.84,0.06,0.23,0.0,0.0,21.6,1103,1276,7200,648.9
AISI-SAE 4640,0.36,0.63,0.018,0.021,0.19,1.84,0.06,0.23,0.0,0.0,39.5,1103,1276,14400,426.7
AISI-SAE 4640,0.36,0.63,0.018,0.021,0.19,1.84,0.06,0.23,0.0,0.0,51.4,1103,1276,28800,204.4
AISI-SAE 4640,0.36,0.63,0.018,0.021,0.19,1.84,0.06,0.23,0.0,0.0,32.2,1103,1276,28800,537.8
AISI-SAE 4640,0.36,0.63,0.018,0.021,0.19,1.84,0.06,0.23,0.0,0.0,45.9,1103,1276,57600,315.6
AISI-SAE 4640,0.36,0.63,0.018,0.021,0.19,1.84,0.06,0.23,0.0,0.0,17.1,1103,1276,57600,648.9
AISI-SAE 4640,0.36,0.63,0.018,0.021,0.19,1.84,0.06,0.23,0.0,0.0,38.6,1103,1276,115200,426.7
AISI-SAE 5140,0.42,0.68,0.026,0.032,0.16,0.07,0.93,0.0,0.0,0.0,48.2,295,570,40,426.7
AISI-SAE 5140,0.42,0.68,0.026,0.032,0.16,0.07,0.93,0.0,0.0,0.0,35.4,295,570,40,648.9
AISI-SAE 5140,0.42,0.68,0.026,0.032,0.16,0.07,0.93,0.0,0.0,0.0,38.6,295,570,120,593.3
AISI-SAE 5140,0.42,0.68,0.026,0.032,0.16,0.07,0.93,0.0,0.0,0.0,39.3,295,570,300,537.8
AISI-SAE 5140,0.42,0.68,0.026,0.032,0.16,0.07,0.93,0.0,0.0,0.0,45.4,295,570,900,426.7
AISI-SAE 5140,0.42,0.68,0.026,0.032,0.16,0.07,0.93,0.0,0.0,0.0,30.9,295,570,900,648.9
AISI-SAE 5140,0.42,0.68,0.026,0.032,0.16,0.07,0.93,0.0,0.0,0.0,49.6,295,570,3600,315.6
AISI-SAE 5140,0.42,0.68,0.026,0.032,0.16,0.07,0.93,0.0,0.0,0.0,39.5,295,570,3600,482.2
AISI-SAE 5140,0.42,0.68,0.026,0.032,0.16,0.07,0.93,0.0,0.0,0.0,27.7,295,570,3600,648.9
AISI-SAE 5140,0.42,0.68,0.026,0.032,0.16,0.07,0.93,0.0,0.0,0.0,43.0,295,570,7200,426.7
AISI-SAE 5140,0.42,0.68,0.026,0.032,0.16,0.07,0.93,0.0,0.0,0.0,53.8,295,570,14400,204.4
AISI-SAE 5140,0.42,0.68,0.026,0.032,0.16,0.07,0.93,0.0,0.0,0.0,32.1,295,570,14400,537.8
AISI-SAE 5140,0.42,0.68,0.026,0.032,0.16,0.07,0.93,0.0,0.0,0.0,49.2,295,570,28800,315.6
AISI-SAE 5140,0.42,0.68,0.026,0.032,0.16,0.07,0.93,0.0,0.0,0.0,26.4,295,570,28800,648.9
AISI-SAE 5140,0.42,0.68,0.026,0.032,0.16,0.07,0.93,0.0,0.0,0.0,41.1,295,570,57600,426.7
AISI-SAE 5140,0.42,0.68,0.026,0.032,0.16,0.07,0.93,0.0,0.0,0.0,52.8,295,570,115200,204.4
AISI-SAE 5140,0.42,0.68,0.026,0.032,0.16,0.07,0.93,0.0,0.0,0.0,29.2,295,570,115200,537.8
AISI-SAE 5160,0.62,0.88,0.012,0.018,0.22,0.0,0.79,0.0,0.0,0.0,60.5,275,724,10,150.0
AISI-SAE 5160,0.62,0.88,0.012,0.018,0.22,0.0,0.79,0.0,0.0,0.0,58.8,275,724,10,300.0
AISI-SAE 5160,0.62,0.88,0.012,0.018,0.22,0.0,0.79,0.0,0.0,0.0,52.5,275,724,10,600.0
AISI-SAE 5160,0.62,0.88,0.012,0.018,0.22,0.0,0.79,0.0,0.0,0.0,59.9,275,724,90,150.0
AISI-SAE 5160,0.62,0.88,0.012,0.018,0.22,0.0,0.79,0.0,0.0,0.0,58.7,275,724,90,300.0
AISI-SAE 5160,0.62,0.88,0.012,0.018,0.22,0.0,0.79,0.0,0.0,0.0,46.4,275,724,90,600.0
AISI-SAE 5160,0.62,0.88,0.012,0.018,0.22,0.0,0.79,0.0,0.0,0.0,59.4,275,724,900,150.0
AISI-SAE 5160,0.62,0.88,0.012,0.018,0.22,0.0,0.79,0.0,0.0,0.0,53.2,275,724,900,300.0
AISI-SAE 5160,0.62,0.88,0.012,0.018,0.22,0.0,0.79,0.0,0.0,0.0,42.0,275,724,900,600.0
AISI-SAE 5160,0.62,0.88,0.012,0.018,0.22,0.0,0.79,0.0,0.0,0.0,50.0,275,724,3600,300.0
AISI-SAE 5160,0.62,0.88,0.012,0.018,0.22,0.0,0.79,0.0,0.0,0.0,27.7,275,724,3600,600.0
AISI-SAE 5160,0.62,0.88,0.012,0.018,0.22,0.0,0.79,0.0,0.0,0.0,58.4,275,724,9000,150.0
AISI-SAE 5160,0.62,0.88,0.012,0.018,0.22,0.0,0.79,0.0,0.0,0.0,44.1,275,724,9000,300.0
AISI-SAE 5160,0.62,0.88,0.012,0.018,0.22,0.0,0.79,0.0,0.0,0.0,23.9,275,724,9000,600.0
AISI-SAE 5160,0.62,0.88,0.012,0.018,0.22,0.0,0.79,0.0,0.0,0.0,56.4,275,724,86400,150.0
AISI-SAE 5160,0.62,0.88,0.012,0.018,0.22,0.0,0.79,0.0,0.0,0.0,43.6,275,724,86400,300.0
AISI-SAE 5160,0.62,0.88,0.012,0.018,0.22,0.0,0.79,0.0,0.0,0.0,20.9,275,724,86400,600.0
AISI-SAE 6145,0.43,0.74,0.019,0.024,0.23,0.06,0.92,0.0,0.16,0.0,41.7,1165,1213,40,537.8
AISI-SAE 6145,0.43,0.74,0.019,0.024,0.23,0.06,0.92,0.0,0.16,0.0,48.2,1165,1213,120,426.7
AISI-SAE 6145,0.43,0.74,0.019,0.024,0.23,0.06,0.92,0.0,0.16,0.0,38.2,1165,1213,120,648.9
AISI-SAE 6145,0.43,0.74,0.019,0.024,0.23,0.06,0.92,0.0,0.16,0.0,38.2,1165,1213,300,593.3
AISI-SAE 6145,0.43,0.74,0.019,0.024,0.23,0.06,0.92,0.0,0.16,0.0,39.1,1165,1213,900,537.8
AISI-SAE 6145,0.43,0.74,0.019,0.024,0.23,0.06,0.92,0.0,0.16,0.0,54.9,1165,1213,3600,204.4
AISI-SAE 6145,0.43,0.74,0.019,0.024,0.23,0.06,0.92,0.0,0.16,0.0,48.5,1165,1213,3600,371.1
AISI-SAE 6145,0.43,0.74,0.019,0.024,0.23,0.06,0.92,0.0,0.16,0.0,38.2,1165,1213,3600,537.8
AISI-SAE 6145,0.43,0.74,0.019,0.024,0.23,0.06,0.92,0.0,0.16,0.0,54.3,1165,1213,7200,204.4
AISI-SAE 6145,0.43,0.74,0.019,0.024,0.23,0.06,0.92,0.0,0.16,0.0,36.9,1165,1213,7200,537.8
AISI-SAE 6145,0.43,0.74,0.019,0.024,0.23,0.06,0.92,0.0,0.16,0.0,49.8,1165,1213,14400,315.6
AISI-SAE 6145,0.43,0.74,0.019,0.024,0.23,0.06,0.92,0.0,0.16,0.0,25.5,1165,1213,14400,648.9
AISI-SAE 6145,0.43,0.74,0.019,0.024,0.23,0.06,0.92,0.0,0.16,0.0,42.8,1165,1213,28800,426.7
AISI-SAE 6145,0.43,0.74,0.019,0.024,0.23,0.06,0.92,0.0,0.16,0.0,53.4,1165,1213,57600,204.4
AISI-SAE 6145,0.43,0.74,0.019,0.024,0.23,0.06,0.92,0.0,0.16,0.0,35.6,1165,1213,57600,537.8
AISI-SAE 6145,0.43,0.74,0.019,0.024,0.23,0.06,0.92,0.0,0.16,0.0,49.3,1165,1213,115200,315.6
AISI-SAE 6145,0.43,0.74,0.019,0.024,0.23,0.06,0.92,0.0,0.16,0.0,19.6,1165,1213,115200,648.9
AISI-SAE 6150,0.51,0.81,0.021,0.014,0.28,0.0,0.98,0.0,0.0,0.0,62.1,415,670,10,200.0
AISI-SAE 6150,0.51,0.81,0.021,0.014,0.28,0.0,0.98,0.0,0.0,0.0,58.8,415,670,10,400.0
AISI-SAE 6150,0.51,0.81,0.021,0.014,0.28,0.0,0.98,0.0,0.0,0.0,43.1,415,670,10,700.0
AISI-SAE 6150,0.51,0.81,0.021,0.014,0.28,0.0,0.98,0.0,0.0,0.0,60.8,415,670,90,200.0
AISI-SAE 6150,0.51,0.81,0.021,0.014,0.28,0.0,0.98,0.0,0.0,0.0,56.5,415,670,90,400.0
AISI-SAE 6150,0.51,0.81,0.021,0.014,0.28,0.0,0.98,0.0,0.0,0.0,37.6,415,670,90,700.0
AISI-SAE 6150,0.51,0.81,0.021,0.014,0.28,0.0,0.98,0.0,0.0,0.0,60.0,415,670,900,200.0
AISI-SAE 6150,0.51,0.81,0.021,0.014,0.28,0.0,0.98,0.0,0.0,0.0,49.6,415,670,900,400.0
AISI-SAE 6150,0.51,0.81,0.021,0.014,0.28,0.0,0.98,0.0,0.0,0.0,36.0,415,670,900,700.0
AISI-SAE 6150,0.51,0.81,0.021,0.014,0.28,0.0,0.98,0.0,0.0,0.0,47.2,415,670,3600,400.0
AISI-SAE 6150,0.51,0.81,0.021,0.014,0.28,0.0,0.98,0.0,0.0,0.0,22.3,415,670,3600,700.0
AISI-SAE 6150,0.51,0.81,0.021,0.014,0.28,0.0,0.98,0.0,0.0,0.0,56.5,415,670,9000,200.0
AISI-SAE 6150,0.51,0.81,0.021,0.014,0.28,0.0,0.98,0.0,0.0,0.0,44.1,415,670,9000,400.0
AISI-SAE 6150,0.51,0.81,0.021,0.014,0.28,0.0,0.98,0.0,0.0,0.0,18.3,415,670,9000,700.0
AISI-SAE 6150,0.51,0.81,0.021,0.014,0.28,0.0,0.98,0.0,0.0,0.0,54.5,415,670,86400,200.0
AISI-SAE 6150,0.51,0.81,0.021,0.014,0.28,0.0,0.98,0.0,0.0,0.0,39.6,415,670,86400,400.0
AISI-SAE 6150,0.51,0.81,0.021,0.014,0.28,0.0,0.98,0.0,0.0,0.0,9.9,415,670,86400,700.0
AISI-SAE 9264,0.55,0.78,0.012,0.022,1.62,0.0,0.77,0.01,0.0,0.0,58.8,410,660,600,315.6
AISI-SAE 9264,0.55,0.78,0.012,0.022,1.62,0.0,0.77,0.01,0.0,0.0,49.8,410,660,600,482.2
AISI-SAE 9264,0.55,0.78,0.012,0.022,1.62,0.0,0.77,0.01,0.0,0.0,39.2,410,660,600,648.9
AISI-SAE 9264,0.55,0.78,0.012,0.022,1.62,0.0,0.77,0.01,0.0,0.0,58.9,410,660,3600,260.0
AISI-SAE 9264,0.55,0.78,0.012,0.022,1.62,0.0,0.77,0.01,0.0,0.0,51.9,410,660,3600,426.7
AISI-SAE 9264,0.55,0.78,0.012,0.022,1.62,0.0,0.77,0.01,0.0,0.0,38.8,410,660,3600,593.3
AISI-SAE 9264,0.55,0.78,0.012,0.022,1.62,0.0,0.77,0.01,0.0,0.0,59.1,410,660,14400,204.4
AISI-SAE 9264,0.55,0.78,0.012,0.022,1.62,0.0,0.77,0.01,0.0,0.0,55.5,410,660,14400,371.1
AISI-SAE 9264,0.55,0.78,0.012,0.022,1.62,0.0,0.77,0.01,0.0,0.0,40.8,410,660,14400,537.8
AISI-SAE 9264,0.55,0.78,0.012,0.022,1.62,0.0,0.77,0.01,0.0,0.0,25.5,410,660,14400,704.4
AISI-SAE 9264,0.55,0.78,0.012,0.022,1.62,0.0,0.77,0.01,0.0,0.0,57.7,410,660,86400,315.6
AISI-SAE 9264,0.55,0.78,0.012,0.022,1.62,0.0,0.77,0.01,0.0,0.0,42.9,410,660,86400,482.2
AISI-SAE 9264,0.55,0.78,0.012,0.022,1.62,0.0,0.77,0.01,0.0,0.0,26.3,410,660,86400,648.9
AISI-SAE E52100,1.02,0.4,0.017,0.014,0.23,0.0,1.42,0.0,0.0,0.0,62.9,460,1300,10,150.0
AISI-SAE E52100,1.02,0.4,0.017,0.014,0.23,0.0,1.42,0.0,0.0,0.0,62.7,460,1300,10,300.0
AISI-SAE E52100,1.02,0.4,0.017,0.014,0.23,0.0,1.42,0.0,0.0,0.0,54.6,460,1300,10,600.0
AISI-SAE E52100,1.02,0.4,0.017,0.014,0.23,0.0,1.42,0.0,0.0,0.0,62.7,460,1300,90,150.0
AISI-SAE E52100,1.02,0.4,0.017,0.014,0.23,0.0,1.42,0.0,0.0,0.0,61.8,460,1300,90,300.0
AISI-SAE E52100,1.02,0.4,0.017,0.014,0.23,0.0,1.42,0.0,0.0,0.0,51.7,460,1300,90,600.0
AISI-SAE E52100,1.02,0.4,0.017,0.014,0.23,0.0,1.42,0.0,0.0,0.0,63.3,460,1300,900,150.0
AISI-SAE E52100,1.02,0.4,0.017,0.014,0.23,0.0,1.42,0.0,0.0,0.0,57.5,460,1300,900,300.0
AISI-SAE E52100,1.02,0.4,0.017,0.014,0.23,0.0,1.42,0.0,0.0,0.0,47.2,460,1300,900,600.0
AISI-SAE E52100,1.02,0.4,0.017,0.014,0.23,0.0,1.42,0.0,0.0,0.0,55.2,460,1300,3600,300.0
AISI-SAE E52100,1.02,0.4,0.017,0.014,0.23,0.0,1.42,0.0,0.0,0.0,36.8,460,1300,3600,600.0
AISI-SAE E52100,1.02,0.4,0.017,0.014,0.23,0.0,1.42,0.0,0.0,0.0,59.8,460,1300,9000,150.0
AISI-SAE E52100,1.02,0.4,0.017,0.014,0.23,0.0,1.42,0.0,0.0,0.0,53.7,460,1300,9000,300.0
AISI-SAE E52100,1.02,0.4,0.017,0.014,0.23,0.0,1.42,0.0,0.0,0.0,32.1,460,1300,9000,600.0
AISI-SAE E52100,1.02,0.4,0.017,0.014,0.23,0.0,1.42,0.0,0.0,0.0,59.4,460,1300,86400,150.0
AISI-SAE E52100,1.02,0.4,0.017,0.014,0.23,0.0,1.42,0.0,0.0,0.0,52.9,460,1300,86400,300.0
AISI-SAE E52100,1.02,0.4,0.017,0.014,0.23,0.0,1.42,0.0,0.0,0.0,26.0,460,1300,86400,600.0
"0,31%C - plain carbon steel",0.31,0.52,0.007,0.026,0.1,0.0,0.015,0.0,0.0,0.06,48.0,440,525,10,150.0
"0,31%C - plain carbon steel",0.31,0.52,0.007,0.026,0.1,0.0,0.015,0.0,0.0,0.06,46.5,440,525,10,300.0
"0,31%C - plain carbon steel",0.31,0.52,0.007,0.026,0.1,0.0,0.015,0.0,0.0,0.06,26.5,440,525,10,600.0
"0,31%C - plain carbon steel",0.31,0.52,0.007,0.026,0.1,0.0,0.015,0.0,0.0,0.06,46.0,440,525,90,150.0
"0,31%C - plain carbon steel",0.31,0.52,0.007,0.026,0.1,0.0,0.015,0.0,0.0,0.06,43.5,440,525,90,300.0
"0,31%C - plain carbon steel",0.31,0.52,0.007,0.026,0.1,0.0,0.015,0.0,0.0,0.06,22.5,440,525,90,600.0
"0,31%C - plain carbon steel",0.31,0.52,0.007,0.026,0.1,0.0,0.015,0.0,0.0,0.06,47.5,440,525,900,150.0
"0,31%C - plain carbon steel",0.31,0.52,0.007,0.026,0.1,0.0,0.015,0.0,0.0,0.06,42.5,440,525,900,300.0
"0,31%C - plain carbon steel",0.31,0.52,0.007,0.026,0.1,0.0,0.015,0.0,0.0,0.06,18.5,440,525,900,600.0
"0,31%C - plain carbon steel",0.31,0.52,0.007,0.026,0.1,0.0,0.015,0.0,0.0,0.06,47.0,440,525,9000,150.0
"0,31%C - plain carbon steel",0.31,0.52,0.007,0.026,0.1,0.0,0.015,0.0,0.0,0.06,39.5,440,525,9000,300.0
"0,31%C - plain carbon steel",0.31,0.52,0.007,0.026,0.1,0.0,0.015,0.0,0.0,0.06,16.0,440,525,9000,600.0
"0,31%C - plain carbon steel",0.31,0.52,0.007,0.026,0.1,0.0,0.015,0.0,0.0,0.06,47.5,440,525,86400,150.0
"0,31%C - plain carbon steel",0.31,0.52,0.007,0.026,0.1,0.0,0.015,0.0,0.0,0.06,37.5,440,525,86400,300.0
"0,31%C - plain carbon steel",0.31,0.52,0.007,0.026,0.1,0.0,0.015,0.0,0.0,0.06,12.5,440,525,86400,600.0
"0,56%C - plain carbon steel",0.56,0.54,0.012,0.015,0.18,0.0,0.02,0.0,0.0,0.0,62.5,560,660,10,150.0
"0,56%C - plain carbon steel",0.56,0.54,0.012,0.015,0.18,0.0,0.02,0.0,0.0,0.0,61.5,560,660,10,300.0
"0,56%C - plain carbon steel",0.56,0.54,0.012,0.015,0.18,0.0,0.02,0.0,0.0,0.0,38.5,560,660,10,600.0
"0,56%C - plain carbon steel",0.56,0.54,0.012,0.015,0.18,0.0,0.02,0.0,0.0,0.0,62.5,560,660,90,150.0
"0,56%C - plain carbon steel",0.56,0.54,0.012,0.015,0.18,0.0,0.02,0.0,0.0,0.0,54.5,560,660,90,300.0
"0,56%C - plain carbon steel",0.56,0.54,0.012,0.015,0.18,0.0,0.02,0.0,0.0,0.0,32.5,560,660,90,600.0
"0,56%C - plain carbon steel",0.56,0.54,0.012,0.015,0.18,0.0,0.02,0.0,0.0,0.0,61.5,560,660,900,150.0
"0,56%C - plain carbon steel",0.56,0.54,0.012,0.015,0.18,0.0,0.02,0.0,0.0,0.0,52.0,560,660,900,300.0
"0,56%C - plain carbon steel",0.56,0.54,0.012,0.015,0.18,0.0,0.02,0.0,0.0,0.0,28.5,560,660,900,600.0
"0,56%C - plain carbon steel",0.56,0.54,0.012,0.015,0.18,0.0,0.02,0.0,0.0,0.0,61.0,560,660,9000,150.0
"0,56%C - plain carbon steel",0.56,0.54,0.012,0.015,0.18,0.0,0.02,0.0,0.0,0.0,50.5,560,660,9000,300.0
"0,56%C - plain carbon steel",0.56,0.54,0.012,0.015,0.18,0.0,0.02,0.0,0.0,0.0,25.0,560,660,9000,600.0
"0,56%C - plain carbon steel",0.56,0.54,0.012,0.015,0.18,0.0,0.02,0.0,0.0,0.0,58.5,560,660,86400,150.0
"0,56%C - plain carbon steel",0.56,0.54,0.012,0.015,0.18,0.0,0.02,0.0,0.0,0.0,47.5,560,660,86400,300.0
"0,56%C - plain carbon steel",0.56,0.54,0.012,0.015,0.18,0.0,0.02,0.0,0.0,0.0,18.5,560,660,86400,600.0
"0,74%C - plain carbon steel",0.74,0.66,0.009,0.021,0.18,0.0,0.01,0.0,0.0,0.0,67.5,505,650,10,150.0
"0,74%C - plain carbon steel",0.74,0.66,0.009,0.021,0.18,0.0,0.01,0.0,0.0,0.0,65.5,505,650,10,300.0
"0,74%C - plain carbon steel",0.74,0.66,0.009,0.021,0.18,0.0,0.01,0.0,0.0,0.0,42.5,505,650,10,600.0
"0,74%C - plain carbon steel",0.74,0.66,0.009,0.021,0.18,0.0,0.01,0.0,0.0,0.0,67.5,505,650,90,150.0
"0,74%C - plain carbon steel",0.74,0.66,0.009,0.021,0.18,0.0,0.01,0.0,0.0,0.0,58.5,505,650,90,300.0
"0,74%C - plain carbon steel",0.74,0.66,0.009,0.021,0.18,0.0,0.01,0.0,0.0,0.0,38.5,505,650,90,600.0
"0,74%C - plain carbon steel",0.74,0.66,0.009,0.021,0.18,0.0,0.01,0.0,0.0,0.0,66.5,505,650,900,150.0
"0,74%C - plain carbon steel",0.74,0.66,0.009,0.021,0.18,0.0,0.01,0.0,0.0,0.0,56.5,505,650,900,300.0
"0,74%C - plain carbon steel",0.74,0.66,0.009,0.021,0.18,0.0,0.01,0.0,0.0,0.0,34.5,505,650,900,600.0
"0,74%C - plain carbon steel",0.74,0.66,0.009,0.021,0.18,0.0,0.01,0.0,0.0,0.0,64.5,505,650,9000,150.0
"0,74%C - plain carbon steel",0.74,0.66,0.009,0.021,0.18,0.0,0.01,0.0,0.0,0.0,53.5,505,650,9000,300.0
"0,74%C - plain carbon steel",0.74,0.66,0.009,0.021,0.18,0.0,0.01,0.0,0.0,0.0,28.5,505,650,9000,600.0
"0,74%C - plain carbon steel",0.74,0.66,0.009,0.021,0.18,0.0,0.01,0.0,0.0,0.0,61.5,505,650,86400,150.0
"0,74%C - plain carbon steel",0.74,0.66,0.009,0.021,0.18,0.0,0.01,0.0,0.0,0.0,51.5,505,650,86400,300.0
"0,74%C - plain carbon steel",0.74,0.66,0.009,0.021,0.18,0.0,0.01,0.0,0.0,0.0,21.5,505,650,86400,600.0
"0,89%C - plain carbon steel",0.89,0.55,0.012,0.02,0.06,0.0,0.01,0.0,0.0,0.08,67.5,540,696,10,150.0
"0,89%C - plain carbon steel",0.89,0.55,0.012,0.02,0.06,0.0,0.01,0.0,0.0,0.08,64.5,540,696,10,300.0
"0,89%C - plain carbon steel",0.89,0.55,0.012,0.02,0.06,0.0,0.01,0.0,0.0,0.08,43.0,540,696,10,600.0
"0,89%C - plain carbon steel",0.89,0.55,0.012,0.02,0.06,0.0,0.01,0.0,0.0,0.08,67.5,540,696,90,150.0
"0,89%C - plain carbon steel",0.89,0.55,0.012,0.02,0.06,0.0,0.01,0.0,0.0,0.08,59.5,540,696,90,300.0
"0,89%C - plain carbon steel",0.89,0.55,0.012,0.02,0.06,0.0,0.01,0.0,0.0,0.08,38.0,540,696,90,600.0
"0,89%C - plain carbon steel",0.89,0.55,0.012,0.02,0.06,0.0,0.01,0.0,0.0,0.08,66.5,540,696,900,150.0
"0,89%C - plain carbon steel",0.89,0.55,0.012,0.02,0.06,0.0,0.01,0.0,0.0,0.08,57.5,540,696,900,300.0
"0,89%C - plain carbon steel",0.89,0.55,0.012,0.02,0.06,0.0,0.01,0.0,0.0,0.08,34.0,540,696,900,600.0
"0,89%C - plain carbon steel",0.89,0.55,0.012,0.02,0.06,0.0,0.01,0.0,0.0,0.08,63.5,540,696,9000,150.0
"0,89%C - plain carbon steel",0.89,0.55,0.012,0.02,0.06,0.0,0.01,0.0,0.0,0.08,54.0,540,696,9000,300.0
"0,89%C - plain carbon steel",0.89,0.55,0.012,0.02,0.06,0.0,0.01,0.0,0.0,0.08,28.5,540,696,9000,600.0
"0,89%C - plain carbon steel",0.89,0.55,0.012,0.02,0.06,0.0,0.01,0.0,0.0,0.08,62.5,540,696,86400,150.0
"0,89%C - plain carbon steel",0.89,0.55,0.012,0.02,0.06,0.0,0.01,0.0,0.0,0.08,52.5,540,696,86400,300.0
"0,89%C - plain carbon steel",0.89,0.55,0.012,0.02,0.06,0.0,0.01,0.0,0.0,0.08,22.5,540,696,86400,600.0
"0,98%C - plain carbon steel",0.98,0.3,0.007,0.021,0.3,0.0,0.03,0.0,0.0,0.055,67.0,525,685,10,150.0
"0,98%C - plain carbon steel",0.98,0.3,0.007,0.021,0.3,0.0,0.03,0.0,0.0,0.055,65.0,525,685,10,300.0
"0,98%C - plain carbon steel",0.98,0.3,0.007,0.021,0.3,0.0,0.03,0.0,0.0,0.055,43.5,525,685,10,602.0
"0,98%C - plain carbon steel",0.98,0.3,0.007,0.021,0.3,0.0,0.03,0.0,0.0,0.055,66.5,525,685,90,150.0
"0,98%C - plain carbon steel",0.98,0.3,0.007,0.021,0.3,0.0,0.03,0.0,0.0,0.055,61.0,525,685,90,300.0
"0,98%C - plain carbon steel",0.98,0.3,0.007,0.021,0.3,0.0,0.03,0.0,0.0,0.055,35.5,525,685,90,602.0
"0,98%C - plain carbon steel",0.98,0.3,0.007,0.021,0.3,0.0,0.03,0.0,0.0,0.055,65.5,525,685,900,150.0
"0,98%C - plain carbon steel",0.98,0.3,0.007,0.021,0.3,0.0,0.03,0.0,0.0,0.055,56.5,525,685,900,300.0
"0,98%C - plain carbon steel",0.98,0.3,0.007,0.021,0.3,0.0,0.03,0.0,0.0,0.055,28.5,525,685,900,602.0
"0,98%C - plain carbon steel",0.98,0.3,0.007,0.021,0.3,0.0,0.03,0.0,0.0,0.055,64.5,525,685,9000,150.0
"0,98%C - plain carbon steel",0.98,0.3,0.007,0.021,0.3,0.0,0.03,0.0,0.0,0.055,55.5,525,685,9000,300.0
"0,98%C - plain carbon steel",0.98,0.3,0.007,0.021,0.3,0.0,0.03,0.0,0.0,0.055,23.5,525,685,9000,602.0
"0,98%C - plain carbon steel",0.98,0.3,0.007,0.021,0.3,0.0,0.03,0.0,0.0,0.055,63.5,525,685,86400,150.0
"0,98%C - plain carbon steel",0.98,0.3,0.007,0.021,0.3,0.0,0.03,0.0,0.0,0.055,52.5,525,685,86400,300.0
"0,98%C - plain carbon steel",0.98,0.3,0.007,0.021,0.3,0.0,0.03,0.0,0.0,0.055,4.5,525,685,86400,602.0
"1,15%C - plain carbon steel",1.15,0.58,0.012,0.021,0.09,0.0,0.01,0.0,0.0,0.0,63.5,525,685,10,150.0
"1,15%C - plain carbon steel",1.15,0.58,0.012,0.021,0.09,0.0,0.01,0.0,0.0,0.0,64.0,525,685,10,300.0
"1,15%C - plain carbon steel",1.15,0.58,0.012,0.021,0.09,0.0,0.01,0.0,0.0,0.0,42.5,525,685,10,600.0
"1,15%C - plain carbon steel",1.15,0.58,0.012,0.021,0.09,0.0,0.01,0.0,0.0,0.0,65.0,525,685,90,150.0
"1,15%C - plain carbon steel",1.15,0.58,0.012,0.021,0.09,0.0,0.01,0.0,0.0,0.0,60.0,525,685,90,300.0
"1,15%C - plain carbon steel",1.15,0.58,0.012,0.021,0.09,0.0,0.01,0.0,0.0,0.0,38.5,525,685,90,600.0
"1,15%C - plain carbon steel",1.15,0.58,0.012,0.021,0.09,0.0,0.01,0.0,0.0,0.0,66.0,525,685,900,150.0
"1,15%C - plain carbon steel",1.15,0.58,0.012,0.021,0.09,0.0,0.01,0.0,0.0,0.0,55.5,525,685,900,300.0
"1,15%C - plain carbon steel",1.15,0.58,0.012,0.021,0.09,0.0,0.01,0.0,0.0,0.0,32.5,525,685,900,600.0
"1,15%C - plain carbon steel",1.15,0.58,0.012,0.021,0.09,0.0,0.01,0.0,0.0,0.0,64.0,525,685,9000,150.0
"1,15%C - plain carbon steel",1.15,0.58,0.012,0.021,0.09,0.0,0.01,0.0,0.0,0.0,53.0,525,685,9000,300.0
"1,15%C - plain carbon steel",1.15,0.58,0.012,0.021,0.09,0.0,0.01,0.0,0.0,0.0,30.5,525,685,9000,600.0
"1,15%C - plain carbon steel",1.15,0.58,0.012,0.021,0.09,0.0,0.01,0.0,0.0,0.0,61.0,525,685,86400,150.0
"1,15%C - plain carbon steel",1.15,0.58,0.012,0.021,0.09,0.0,0.01,0.0,0.0,0.0,50.5,525,685,86400,300.0
"1,15%C - plain carbon steel",1.15,0.58,0.012,0.021,0.09,0.0,0.01,0.0,0.0,0.0,23.0,525,685,86400,600.0
"1,15%C - plain carbon steel",1.15,0.58,0.012,0.021,0.09,0.0,0.01,0.0,0.0,0.0,4.5,525,685,86400,700.0