File: resources/multiout/X_nopreproc.csv
steel_type_AISI 1030,steel_type_AISI 1049,steel_type_AISI 1055,steel_type_AISI 1074 Carbon Steel,steel_type_AISI 1090,steel_type_AISI 1095,steel_type_AISI 4047,steel_type_AISI 4640,steel_type_AISI 52100,steel_type_AISI 6145,steel_type_AISI-SAE 1026,steel_type_AISI-SAE 1035,steel_type_AISI-SAE 1038,steel_type_AISI-SAE 1040,steel_type_AISI-SAE 1042,steel_type_AISI-SAE 1045,steel_type_AISI-SAE 1050,steel_type_AISI-SAE 1065,steel_type_AISI-SAE 1080,steel_type_AISI-SAE 1335,steel_type_AISI-SAE 4027,steel_type_AISI-SAE 4037,steel_type_AISI-SAE 4140,steel_type_AISI-SAE 4340,steel_type_AISI-SAE 5140,steel_type_AISI-SAE 5160,steel_type_AISI-SAE 6150,steel_type_AISI-SAE 9254,C,Mn,P,S,Si,Ni,Cr,Mo,V,Al,Cu,final_hardness_post_tempering_HRC,yield_strength_MPa,ultimate_strength_MPA
0.0,0.0,0.0,0.0,0.0,0.0,0.0,0.0,0.0,0.0,1.0,0.0,0.0,0.0,0.0,0.0,0.0,0.0,0.0,0.0,0.0,0.0,0.0,0.0,0.0,0.0,0.0,0.0,-1.1559,0.167872,-0.60703,0.268364,-0.513467,-0.392117,-0.813526,-0.638219,-0.201129,0.0,-0.337311,0.611736,-0.342255,-1.0096
0.0,0.0,0.0,0.0,0.0,0.0,0.0,0.0,0.0,0.0,1.0,0.0,0.0,0.0,0.0,0.0,0.0,0.0,0.0,0.0,0.0,0.0,0.0,0.0,0.0,0.0,0.0,0.0,-1.1559,0.167872,-0.60703,0.268364,-0.513467,-0.392117,-0.813526,-0.638219,-0.201129,0.0,-0.337311,-1.30226,-0.342255,-1.0096
0.0,0.0,0.0,0.0,0.0,0.0,0.0,0.0,0.0,0.0,1.0,0.0,0.0,0.0,0.0,0.0,0.0,0.0,0.0,0.0,0.0,0.0,0.0,0.0,0.0,0.0,0.0,0.0,-1.1559,0.167872,-0.60703,0.268364,-0.513467,-0.392117,-0.813526,-0.638219,-0.201129,0.0,-0.337311,-0.585379,-0.342255,-1.0096
0.0,0.0,0.0,0.0,0.0,0.0,0.0,0.0,0.0,0.0,1.0,0.0,0.0,0.0,0.0,0.0,0.0,0.0,0.0,0.0,0.0,0.0,0.0,0.0,0.0,0.0,0.0,0.0,-1.1559,0.167872,-0.60703,0.268364,-0.513467,-0.392117,-0.813526,-0.638219,-0.201129,0.0,-0.337311,-0.0633812,-0.342255,-1.0096
0.0,0.0,0.0,0.0,0.0,0.0,0.0,0.0,0.0,0.0,1.0,0.0,0.0,0.0,0.0,0.0,0.0,0.0,0.0,0.0,0.0,0.0,0.0,0.0,0.0,0.0,0.0,0.0,-1.1559,0.167872,-0.60703,0.268364,-0.513467,-0.392117,-0.813526,-0.638219,-0.201129,0.0,-0.337311,-2.42281,-0.342255,-1.0096
0.0,0.0,0.0,0.0,0.0,0.0,0.0,0.0,0.0,0.0,1.0,0.0,0.0,0.0,0.0,0.0,0.0,0.0,0.0,0.0,0.0,0.0,0.0,0.0,0.0,0.0,0.0,0.0,-1.1559,0.167872,-0.60703,0.268364,-0.513467,-0.392117,-0.813526,-0.638219,-0.201129,0.0,-0.337311,-1.6085,-0.342255,-1.0096
1.0,0.0,0.0,0.0,0.0,0.0,0.0,0.0,0.0,0.0,0.0,0.0,0.0,0.0,0.0,0.0,0.0,0.0,0.0,0.0,0.0,0.0,0.0,0.0,0.0,0.0,0.0,0.0,-0.89915,-0.656253,-1.08405,0.135729,-0.591857,-0.357126,-0.769961,-0.638219,-0.201129,0.0,-0.337311,-0.112101,-0.221583,-0.847309
1.0,0.0,0.0,0.0,0.0,0.0,0.0,0.0,0.0,0.0,0.0,0.0,0.0,0.0,0.0,0.0,0.0,0.0,0.0,0.0,0.0,0.0,0.0,0.0,0.0,0.0,0.0,0.0,-0.89915,-0.656253,-1.08405,0.135729,-0.591857,-0.357126,-0.769961,-0.638219,-0.201129,0.0,-0.337311,0.521257,-0.221583,-0.847309
1.0,0.0,0.0,0.0,0.0,0.0,0.0,0.0,0.0,0.0,0.0,0.0,0.0,0.0,0.0,0.0,0.0,0.0,0.0,0.0,0.0,0.0,0.0,0.0,0.0,0.0,0.0,0.0,-0.89915,-0.656253,-1.08405,0.135729,-0.591857,-0.357126,-0.769961,-0.638219,-0.201129,0.0,-0.337311,-2.09569,-0.221583,-0.847309
1.0,0.0,0.0,0.0,0.0,0.0,0.0,0.0,0.0,0.0,0.0,0.0,0.0,0.0,0.0,0.0,0.0,0.0,0.0,0.0,0.0,0.0,0.0,0.0,0.0,0.0,0.0,0.0,-0.89915,-0.656253,-1.08405,0.135729,-0.591857,-0.357126,-0.769961,-0.638219,-0.201129,0.0,-0.337311,-1.12826,-0.221583,-0.847309
1.0,0.0,0.0,0.0,0.0,0.0,0.0,0.0,0.0,0.0,0.0,0.0,0.0,0.0,0.0,0.0,0.0,0.0,0.0,0.0,0.0,0.0,0.0,0.0,0.0,0.0,0.0,0.0,-0.89915,-0.656253,-1.08405,0.135729,-0.591857,-0.357126,-0.769961,-0.638219,-0.201129,0.0,-0.337311,-0.0633812,-0.221583,-0.847309
1.0,0.0,0.0,0.0,0.0,0.0,0.0,0.0,0.0,0.0,0.0,0.0,0.0,0.0,0.0,0.0,0.0,0.0,0.0,0.0,0.0,0.0,0.0,0.0,0.0,0.0,0.0,0.0,-0.89915,-0.656253,-1.08405,0.135729,-0.591857,-0.357126,-0.769961,-0.638219,-0.201129,0.0,-0.337311,-2.74993,-0.221583,-0.847309
0.0,0.0,0.0,0.0,0.0,0.0,0.0,0.0,0.0,0.0,0.0,1.0,0.0,0.0,0.0,0.0,0.0,0.0,0.0,0.0,0.0,0.0,0.0,0.0,0.0,0.0,0.0,0.0,-0.685193,-0.0194292,0.227752,0.798904,-0.00393169,-0.357126,-0.769961,-0.550551,-0.201129,0.0,-0.337311,-0.933378,-0.559465,-0.569102
0.0,0.0,0.0,0.0,0.0,0.0,0.0,0.0,0.0,0.0,0.0,1.0,0.0,0.0,0.0,0.0,0.0,0.0,0.0,0.0,0.0,0.0,0.0,0.0,0.0,0.0,0.0,0.0,-0.685193,-0.0194292,0.227752,0.798904,-0.00393169,-0.357126,-0.769961,-0.550551,-0.201129,0.0,-0.337311,-0.00770144,-0.559465,-0.569102
0.0,0.0,0.0,0.0,0.0,0.0,0.0,0.0,0.0,0.0,0.0,1.0,0.0,0.0,0.0,0.0,0.0,0.0,0.0,0.0,0.0,0.0,0.0,0.0,0.0,0.0,0.0,0.0,-0.685193,-0.0194292,0.227752,0.798904,-0.00393169,-0.357126,-0.769961,-0.550551,-0.201129,0.0,-0.337311,0.569977,-0.559465,-0.569102
0.0,0.0,0.0,0.0,0.0,0.0,0.0,0.0,0.0,0.0,0.0,1.0,0.0,0.0,0.0,0.0,0.0,0.0,0.0,0.0,0.0,0.0,0.0,0.0,0.0,0.0,0.0,0.0,-0.685193,-0.0194292,0.227752,0.798904,-0.00393169,-0.357126,-0.769961,-0.550551,-0.201129,0.0,-0.337311,-1.59458,-0.559465,-0.569102
0.0,0.0,0.0,0.0,0.0,0.0,0.0,0.0,0.0,0.0,0.0,1.0,0.0,0.0,0.0,0.0,0.0,0.0,0.0,0.0,0.0,0.0,0.0,0.0,0.0,0.0,0.0,0.0,-0.685193,-0.0194292,0.227752,0.798904,-0.00393169,-0.357126,-0.769961,-0.550551,-0.201129,0.0,-0.337311,-0.738499,-0.559465,-0.569102
0.0,0.0,0.0,0.0,0.0,0.0,0.0,0.0,0.0,0.0,0.0,0.0,1.0,0.0,0.0,0.0,0.0,0.0,0.0,0.0,0.0,0.0,0.0,0.0,0.0,0.0,0.0,0.0,-0.556819,0.018031,3.68613,2.52316,-0.239102,-0.392117,-0.813526,-0.638219,-0.201129,0.0,-0.337311,0.500377,-0.00437273,-0.638654
0.0,0.0,0.0,0.0,0.0,0.0,0.0,0.0,0.0,0.0,0.0,0.0,1.0,0.0,0.0,0.0,0.0,0.0,0.0,0.0,0.0,0.0,0.0,0.0,0.0,0.0,0.0,0.0,-0.556819,0.018031,3.68613,2.52316,-0.239102,-0.392117,-0.813526,-0.638219,-0.201129,0.0,-0.337311,-1.6433,-0.00437273,-0.638654
0.0,0.0,0.0,0.0,0.0,0.0,0.0,0.0,0.0,0.0,0.0,0.0,0.0,1.0,0.0,0.0,0.0,0.0,0.0,0.0,0.0,0.0,0.0,0.0,0.0,0.0,0.0,0.0,-0.514028,-0.543873,-0.845539,-1.45589,0.113653,-0.357126,-0.66105,-0.550551,-0.201129,0.0,-0.337311,-0.773299,-0.342255,-0.406815
0.0,0.0,0.0,0.0,0.0,0.0,0.0,0.0,0.0,0.0,0.0,0.0,0.0,1.0,0.0,0.0,0.0,0.0,0.0,0.0,0.0,0.0,0.0,0.0,0.0,0.0,0.0,0.0,-0.514028,-0.543873,-0.845539,-1.45589,0.113653,-0.357126,-0.66105,-0.550551,-0.201129,0.0,-0.337311,0.0688583,-0.342255,-0.406815
0.0,0.0,0.0,0.0,0.0,0.0,0.0,0.0,0.0,0.0,0.0,0.0,0.0,1.0,0.0,0.0,0.0,0.0,0.0,0.0,0.0,0.0,0.0,0.0,0.0,0.0,0.0,0.0,-0.514028,-0.543873,-0.845539,-1.45589,0.113653,-0.357126,-0.66105,-0.550551,-0.201129,0.0,-0.337311,0.639576,-0.342255,-0.406815
0.0,0.0,0.0,0.0,0.0,0.0,0.0,0.0,0.0,0.0,0.0,0.0,0.0,1.0,0.0,0.0,0.0,0.0,0.0,0.0,0.0,0.0,0.0,0.0,0.0,0.0,0.0,0.0,-0.514028,-0.543873,-0.845539,-1.45589,0.113653,-0.357126,-0.66105,-0.550551,-0.201129,0.0,-0.337311,-1.31618,-0.342255,-0.406815
0.0,0.0,0.0,0.0,0.0,0.0,0.0,0.0,0.0,0.0,0.0,0.0,0.0,1.0,0.0,0.0,0.0,0.0,0.0,0.0,0.0,0.0,0.0,0.0,0.0,0.0,0.0,0.0,-0.514028,-0.543873,-0.845539,-1.45589,0.113653,-0.357126,-0.66105,-0.550551,-0.201129,0.0,-0.337311,-0.613219,-0.342255,-0.406815
0.0,0.0,0.0,0.0,0.0,0.0,0.0,0.0,0.0,0.0,0.0,0.0,0.0,0.0,1.0,0.0,0.0,0.0,0.0,0.0,0.0,0.0,0.0,0.0,0.0,0.0,0.0,0.0,-0.342863,0.167872,0.347007,0.798904,-0.00393169,-0.357126,-0.769961,-0.550551,-0.201129,0.0,-0.337311,0.820536,0.454182,-0.035872
0.0,0.0,0.0,0.0,0.0,0.0,0.0,0.0,0.0,0.0,0.0,0.0,0.0,0.0,1.0,0.0,0.0,0.0,0.0,0.0,0.0,0.0,0.0,0.0,0.0,0.0,0.0,0.0,-0.342863,0.167872,0.347007,0.798904,-0.00393169,-0.357126,-0.769961,-0.550551,-0.201129,0.0,-0.337311,-1.26746,0.454182,-0.035872
0.0,0.0,0.0,0.0,0.0,0.0,0.0,0.0,0.0,0.0,0.0,0.0,0.0,0.0,1.0,0.0,0.0,0.0,0.0,0.0,0.0,0.0,0.0,0.0,0.0,0.0,0.0,0.0,-0.342863,0.167872,0.347007,0.798904,-0.00393169,-0.357126,-0.769961,-0.550551,-0.201129,0.0,-0.337311,-0.5297,0.454182,-0.035872
0.0,0.0,0.0,0.0,0.0,0.0,0.0,0.0,0.0,0.0,0.0,0.0,0.0,0.0,1.0,0.0,0.0,0.0,0.0,0.0,0.0,0.0,0.0,0.0,0.0,0.0,0.0,0.0,-0.342863,0.167872,0.347007,0.798904,-0.00393169,-0.357126,-0.769961,-0.550551,-0.201129,0.0,-0.337311,0.430777,0.454182,-0.035872
0.0,0.0,0.0,0.0,0.0,0.0,0.0,0.0,0.0,0.0,0.0,0.0,0.0,0.0,1.0,0.0,0.0,0.0,0.0,0.0,0.0,0.0,0.0,0.0,0.0,0.0,0.0,0.0,-0.342863,0.167872,0.347007,0.798904,-0.00393169,-0.357126,-0.769961,-0.550551,-0.201129,0.0,-0.337311,-2.23489,0.454182,-0.035872
0.0,0.0,0.0,0.0,0.0,0.0,0.0,0.0,0.0,0.0,0.0,0.0,0.0,0.0,1.0,0.0,0.0,0.0,0.0,0.0,0.0,0.0,0.0,0.0,0.0,0.0,0.0,0.0,-0.342863,0.167872,0.347007,0.798904,-0.00393169,-0.357126,-0.769961,-0.550551,-0.201129,0.0,-0.337311,-1.28834,0.454182,-0.035872
0.0,0.0,0.0,0.0,0.0,0.0,0.0,0.0,0.0,0.0,0.0,0.0,0.0,0.0,0.0,1.0,0.0,0.0,0.0,0.0,0.0,0.0,0.0,0.0,0.0,0.0,0.0,0.0,-0.300072,-0.0568895,-0.010757,0.798904,-0.278297,-0.374621,-0.769961,-0.550551,-0.201129,0.0,-0.337311,0.430777,-0.173314,-0.569102
0.0,0.0,0.0,0.0,0.0,0.0,0.0,0.0,0.0,0.0,0.0,0.0,0.0,0.0,0.0,1.0,0.0,0.0,0.0,0.0,0.0,0.0,0.0,0.0,0.0,0.0,0.0,0.0,-0.300072,-0.0568895,-0.010757,0.798904,-0.278297,-0.374621,-0.769961,-0.550551,-0.201129,0.0,-0.337311,1.00846,-0.173314,-0.569102
0.0,0.0,0.0,0.0,0.0,0.0,0.0,0.0,0.0,0.0,0.0,0.0,0.0,0.0,0.0,1.0,0.0,0.0,0.0,0.0,0.0,0.0,0.0,0.0,0.0,0.0,0.0,0.0,-0.300072,-0.0568895,-0.010757,0.798904,-0.278297,-0.374621,-0.769961,-0.550551,-0.201129,0.0,-0.337311,-1.14914,-0.173314,-0.569102
0.0,0.0,0.0,0.0,0.0,0.0,0.0,0.0,0.0,0.0,0.0,0.0,0.0,0.0,0.0,1.0,0.0,0.0,0.0,0.0,0.0,0.0,0.0,0.0,0.0,0.0,0.0,0.0,-0.300072,-0.0568895,-0.010757,0.798904,-0.278297,-0.374621,-0.769961,-0.550551,-0.201129,0.0,-0.337311,-0.237381,-0.173314,-0.569102
0.0,0.0,0.0,0.0,0.0,0.0,0.0,0.0,0.0,0.0,0.0,0.0,0.0,0.0,0.0,1.0,0.0,0.0,0.0,0.0,0.0,0.0,0.0,0.0,0.0,0.0,0.0,0.0,-0.300072,-0.0568895,-0.010757,0.798904,-0.278297,-0.374621,-0.769961,-0.550551,-0.201129,0.0,-0.337311,0.653496,-0.173314,-0.569102
0.0,0.0,0.0,0.0,0.0,0.0,0.0,0.0,0.0,0.0,0.0,0.0,0.0,0.0,0.0,1.0,0.0,0.0,0.0,0.0,0.0,0.0,0.0,0.0,0.0,0.0,0.0,0.0,-0.300072,-0.0568895,-0.010757,0.798904,-0.278297,-0.374621,-0.769961,-0.550551,-0.201129,0.0,-0.337311,-2.04697,-0.173314,-0.569102
0.0,1.0,0.0,0.0,0.0,0.0,0.0,0.0,0.0,0.0,0.0,0.0,0.0,0.0,0.0,0.0,0.0,0.0,0.0,0.0,0.0,0.0,0.0,0.0,0.0,0.0,0.0,0.0,-0.171698,0.0554913,3.44762,3.18633,-0.395882,-0.392117,-0.813526,-0.638219,-0.201129,0.0,-0.337311,-0.43922,0.743796,0.195967
0.0,0.0,0.0,0.0,0.0,0.0,0.0,0.0,0.0,0.0,0.0,0.0,0.0,0.0,0.0,0.0,1.0,0.0,0.0,0.0,0.0,0.0,0.0,0.0,0.0,0.0,0.0,0.0,-0.086115,0.617395,3.44762,2.25789,-0.435077,-0.392117,-0.813526,-0.638219,-0.201129,0.0,-0.337311,-0.40442,0.454182,-0.0822398
0.0,0.0,0.0,0.0,0.0,0.0,0.0,0.0,0.0,0.0,0.0,0.0,0.0,0.0,0.0,0.0,1.0,0.0,0.0,0.0,0.0,0.0,0.0,0.0,0.0,0.0,0.0,0.0,-0.086115,0.617395,3.44762,2.25789,-0.435077,-0.392117,-0.813526,-0.638219,-0.201129,0.0,-0.337311,-0.641059,0.454182,-0.0822398
0.0,0.0,0.0,0.0,0.0,0.0,0.0,0.0,0.0,0.0,0.0,0.0,0.0,0.0,0.0,0.0,0.0,1.0,0.0,0.0,0.0,0.0,0.0,0.0,0.0,0.0,0.0,0.0,0.470172,0.467554,0.70477,-0.792715,-0.278297,-0.357126,-0.726396,-0.638219,-0.201129,0.0,-0.337311,1.14765,0.0197617,-0.337263
0.0,0.0,0.0,0.0,0.0,0.0,0.0,0.0,0.0,0.0,0.0,0.0,0.0,0.0,0.0,0.0,0.0,1.0,0.0,0.0,0.0,0.0,0.0,0.0,0.0,0.0,0.0,0.0,0.470172,0.467554,0.70477,-0.792715,-0.278297,-0.357126,-0.726396,-0.638219,-0.201129,0.0,-0.337311,-0.842899,0.0197617,-0.337263
0.0,0.0,0.0,0.0,0.0,0.0,0.0,0.0,0.0,0.0,0.0,0.0,0.0,0.0,0.0,0.0,0.0,1.0,0.0,0.0,0.0,0.0,0.0,0.0,0.0,0.0,0.0,0.0,0.555755,0.467554,2.7321,2.39052,-0.199907,-0.392117,-0.813526,-0.638219,-0.201129,0.0,-0.337311,0.221978,0.0197617,-0.337263
0.0,0.0,0.0,0.0,0.0,0.0,0.0,0.0,0.0,0.0,0.0,0.0,0.0,0.0,0.0,0.0,0.0,0.0,1.0,0.0,0.0,0.0,0.0,0.0,0.0,0.0,0.0,0.0,1.28321,0.018031,4.40166,4.11478,0.231238,-0.392117,-0.813526,-0.638219,-0.201129,0.0,-0.337311,0.569977,0.236972,0.520542
0.0,0.0,0.0,0.0,0.0,0.0,0.0,0.0,0.0,0.0,0.0,0.0,0.0,0.0,0.0,0.0,0.0,0.0,1.0,0.0,0.0,0.0,0.0,0.0,0.0,0.0,0.0,0.0,1.28321,0.018031,4.40166,4.11478,0.231238,-0.392117,-0.813526,-0.638219,-0.201129,0.0,-0.337311,0.0966982,0.236972,0.520542
0.0,0.0,0.0,0.0,0.0,0.0,0.0,0.0,0.0,0.0,0.0,0.0,0.0,0.0,0.0,0.0,0.0,0.0,1.0,0.0,0.0,0.0,0.0,0.0,0.0,0.0,0.0,0.0,1.28321,0.018031,4.40166,4.11478,0.231238,-0.392117,-0.813526,-0.638219,-0.201129,0.0,-0.337311,-0.682819,0.236972,0.520542
0.0,0.0,0.0,0.0,0.0,0.0,0.0,0.0,0.0,0.0,0.0,0.0,0.0,0.0,0.0,0.0,0.0,0.0,0.0,1.0,0.0,0.0,0.0,0.0,0.0,0.0,0.0,0.0,-0.727985,4.13866,0.347007,0.268364,-0.199907,-0.374621,-0.748179,-0.638219,-0.201129,0.0,-0.337311,-0.613219,-0.897348,-0.731389
0.0,0.0,0.0,0.0,0.0,0.0,0.0,0.0,0.0,0.0,0.0,0.0,0.0,0.0,0.0,0.0,0.0,0.0,0.0,1.0,0.0,0.0,0.0,0.0,0.0,0.0,0.0,0.0,-0.727985,4.13866,0.347007,0.268364,-0.199907,-0.374621,-0.748179,-0.638219,-0.201129,0.0,-0.337311,-0.578419,-0.897348,-0.731389
0.0,0.0,0.0,0.0,0.0,0.0,0.0,0.0,0.0,0.0,0.0,0.0,0.0,0.0,0.0,0.0,0.0,0.0,0.0,1.0,0.0,0.0,0.0,0.0,0.0,0.0,0.0,0.0,-0.727985,4.13866,0.347007,0.268364,-0.199907,-0.374621,-0.748179,-0.638219,-0.201129,0.0,-0.337311,-0.188661,-0.897348,-0.731389
0.0,0.0,0.0,0.0,0.0,0.0,0.0,0.0,0.0,0.0,0.0,0.0,0.0,0.0,0.0,0.0,0.0,0.0,0.0,1.0,0.0,0.0,0.0,0.0,0.0,0.0,0.0,0.0,-0.727985,4.13866,0.347007,0.268364,-0.199907,-0.374621,-0.748179,-0.638219,-0.201129,0.0,-0.337311,-0.272181,-0.897348,-0.731389
0.0,0.0,0.0,0.0,0.0,0.0,0.0,0.0,0.0,0.0,0.0,0.0,0.0,0.0,0.0,0.0,0.0,0.0,0.0,1.0,0.0,0.0,0.0,0.0,0.0,0.0,0.0,0.0,-0.727985,4.13866,0.347007,0.268364,-0.199907,-0.374621,-0.748179,-0.638219,-0.201129,0.0,-0.337311,-1.7477,-0.897348,-0.731389
0.0,0.0,0.0,0.0,0.0,0.0,0.0,0.0,0.0,0.0,0.0,0.0,0.0,0.0,0.0,0.0,0.0,0.0,0.0,1.0,0.0,0.0,0.0,0.0,0.0,0.0,0.0,0.0,-0.727985,4.13866,0.347007,0.268364,-0.199907,-0.374621,-0.748179,-0.638219,-0.201129,0.0,-0.337311,0.340297,-0.897348,-0.731389
0.0,0.0,0.0,0.0,0.0,0.0,0.0,0.0,0.0,0.0,0.0,0.0,0.0,0.0,0.0,0.0,0.0,0.0,0.0,1.0,0.0,0.0,0.0,0.0,0.0,0.0,0.0,0.0,-0.727985,4.13866,0.347007,0.268364,-0.199907,-0.374621,-0.748179,-0.638219,-0.201129,0.0,-0.337311,-1.2257,-0.897348,-0.731389
0.0,0.0,0.0,0.0,0.0,0.0,0.0,0.0,0.0,0.0,0.0,0.0,0.0,0.0,0.0,0.0,0.0,0.0,0.0,0.0,1.0,0.0,0.0,0.0,0.0,0.0,0.0,0.0,-1.11311,0.467554,-0.249266,0.798904,0.192043,-0.33963,-0.682832,1.64116,-0.201129,0.0,-0.337311,-0.48794,-0.776675,-0.893677
0.0,0.0,0.0,0.0,0.0,0.0,0.0,0.0,0.0,0.0,0.0,0.0,0.0,0.0,0.0,0.0,0.0,0.0,0.0,0.0,1.0,0.0,0.0,0.0,0.0,0.0,0.0,0.0,-1.11311,0.467554,-0.249266,0.798904,0.192043,-0.33963,-0.682832,1.64116,-0.201129,0.0,-0.337311,0.0479784,-0.776675,-0.893677
0.0,0.0,0.0,0.0,0.0,0.0,0.0,0.0,0.0,0.0,0.0,0.0,0.0,0.0,0.0,0.0,0.0,0.0,0.0,0.0,1.0,0.0,0.0,0.0,0.0,0.0,0.0,0.0,-1.11311,0.467554,-0.249266,0.798904,0.192043,-0.33963,-0.682832,1.64116,-0.201129,0.0,-0.337311,-1.83122,-0.776675,-0.893677
0.0,0.0,0.0,0.0,0.0,0.0,0.0,0.0,0.0,0.0,0.0,0.0,0.0,0.0,0.0,0.0,0.0,0.0,0.0,0.0,1.0,0.0,0.0,0.0,0.0,0.0,0.0,0.0,-1.11311,0.467554,-0.249266,0.798904,0.192043,-0.33963,-0.682832,1.64116,-0.201129,0.0,-0.337311,-0.884658,-0.776675,-0.893677
0.0,0.0,0.0,0.0,0.0,0.0,0.0,0.0,0.0,0.0,0.0,0.0,0.0,0.0,0.0,0.0,0.0,0.0,0.0,0.0,1.0,0.0,0.0,0.0,0.0,0.0,0.0,0.0,-1.11311,0.467554,-0.249266,0.798904,0.192043,-0.33963,-0.682832,1.64116,-0.201129,0.0,-0.337311,-0.30002,-0.776675,-0.893677
0.0,0.0,0.0,0.0,0.0,0.0,0.0,0.0,0.0,0.0,0.0,0.0,0.0,0.0,0.0,0.0,0.0,0.0,0.0,0.0,0.0,1.0,0.0,0.0,0.0,0.0,0.0,0.0,-0.727985,0.205332,0.585516,0.533634,-0.00393169,-0.287143,-0.682832,1.55349,-0.201129,0.0,-0.337311,0.750936,-0.945617,-0.777757
0.0,0.0,0.0,0.0,0.0,0.0,0.0,0.0,0.0,0.0,0.0,0.0,0.0,0.0,0.0,0.0,0.0,0.0,0.0,0.0,0.0,1.0,0.0,0.0,0.0,0.0,0.0,0.0,-0.727985,0.205332,0.585516,0.533634,-0.00393169,-0.287143,-0.682832,1.55349,-0.201129,0.0,-0.337311,-0.634099,-0.945617,-0.777757
0.0,0.0,0.0,0.0,0.0,0.0,0.0,0.0,0.0,0.0,0.0,0.0,0.0,0.0,0.0,0.0,0.0,0.0,0.0,0.0,0.0,1.0,0.0,0.0,0.0,0.0,0.0,0.0,-0.727985,0.205332,0.585516,0.533634,-0.00393169,-0.287143,-0.682832,1.55349,-0.201129,0.0,-0.337311,-0.0912211,-0.945617,-0.777757
0.0,0.0,0.0,0.0,0.0,0.0,0.0,0.0,0.0,0.0,0.0,0.0,0.0,0.0,0.0,0.0,0.0,0.0,0.0,0.0,0.0,1.0,0.0,0.0,0.0,0.0,0.0,0.0,-0.727985,0.205332,0.585516,0.533634,-0.00393169,-0.287143,-0.682832,1.55349,-0.201129,0.0,-0.337311,0.437737,-0.945617,-0.777757
0.0,0.0,0.0,0.0,0.0,0.0,0.0,0.0,0.0,0.0,0.0,0.0,0.0,0.0,0.0,0.0,0.0,0.0,0.0,0.0,0.0,1.0,0.0,0.0,0.0,0.0,0.0,0.0,-0.727985,0.205332,0.585516,0.533634,-0.00393169,-0.287143,-0.682832,1.55349,-0.201129,0.0,-0.337311,-1.3649,-0.945617,-0.777757
0.0,0.0,0.0,0.0,0.0,0.0,0.0,0.0,0.0,0.0,0.0,0.0,0.0,0.0,0.0,0.0,0.0,0.0,0.0,0.0,0.0,1.0,0.0,0.0,0.0,0.0,0.0,0.0,-0.727985,0.205332,0.585516,0.533634,-0.00393169,-0.287143,-0.682832,1.55349,-0.201129,0.0,-0.337311,-0.47402,-0.945617,-0.777757
0.0,0.0,0.0,0.0,0.0,0.0,1.0,0.0,0.0,0.0,0.0,0.0,0.0,0.0,0.0,0.0,0.0,0.0,0.0,0.0,0.0,0.0,0.0,0.0,0.0,0.0,0.0,0.0,-0.171698,0.729776,-0.249266,0.798904,-0.317492,-0.322134,-0.748179,1.55349,-0.201129,0.0,-0.337311,0.618696,-0.849079,-0.592286
0.0,0.0,0.0,0.0,0.0,0.0,1.0,0.0,0.0,0.0,0.0,0.0,0.0,0.0,0.0,0.0,0.0,0.0,0.0,0.0,0.0,0.0,0.0,0.0,0.0,0.0,0.0,0.0,-0.171698,0.729776,-0.249266,0.798904,-0.317492,-0.322134,-0.748179,1.55349,-0.201129,0.0,-0.337311,-1.17002,-0.849079,-0.592286
0.0,0.0,0.0,0.0,0.0,0.0,1.0,0.0,0.0,0.0,0.0,0.0,0.0,0.0,0.0,0.0,0.0,0.0,0.0,0.0,0.0,0.0,0.0,0.0,0.0,0.0,0.0,0.0,-0.171698,0.729776,-0.249266,0.798904,-0.317492,-0.322134,-0.748179,1.55349,-0.201129,0.0,-0.337311,-0.36962,-0.849079,-0.592286
0.0,0.0,0.0,0.0,0.0,0.0,1.0,0.0,0.0,0.0,0.0,0.0,0.0,0.0,0.0,0.0,0.0,0.0,0.0,0.0,0.0,0.0,0.0,0.0,0.0,0.0,0.0,0.0,-0.171698,0.729776,-0.249266,0.798904,-0.317492,-0.322134,-0.748179,1.55349,-0.201129,0.0,-0.337311,0.291578,-0.849079,-0.592286
0.0,0.0,0.0,0.0,0.0,0.0,1.0,0.0,0.0,0.0,0.0,0.0,0.0,0.0,0.0,0.0,0.0,0.0,0.0,0.0,0.0,0.0,0.0,0.0,0.0,0.0,0.0,0.0,-0.171698,0.729776,-0.249266,0.798904,-0.317492,-0.322134,-0.748179,1.55349,-0.201129,0.0,-0.337311,0.813576,-0.849079,-0.592286
0.0,0.0,0.0,0.0,0.0,0.0,1.0,0.0,0.0,0.0,0.0,0.0,0.0,0.0,0.0,0.0,0.0,0.0,0.0,0.0,0.0,0.0,0.0,0.0,0.0,0.0,0.0,0.0,-0.171698,0.729776,-0.249266,0.798904,-0.317492,-0.322134,-0.748179,1.55349,-0.201129,0.0,-0.337311,-0.996018,-0.849079,-0.592286
0.0,0.0,0.0,0.0,0.0,0.0,0.0,0.0,0.0,0.0,0.0,0.0,0.0,0.0,0.0,0.0,0.0,0.0,0.0,0.0,0.0,0.0,1.0,0.0,0.0,0.0,0.0,0.0,-0.471237,0.505014,-0.130012,-0.792715,-0.0431267,-0.392117,1.40827,1.29048,-0.201129,0.0,-0.337311,1.0015,-0.342255,-0.244527
0.0,0.0,0.0,0.0,0.0,0.0,0.0,0.0,0.0,0.0,0.0,0.0,0.0,0.0,0.0,0.0,0.0,0.0,0.0,0.0,0.0,0.0,1.0,0.0,0.0,0.0,0.0,0.0,-0.642402,0.0929515,0.227752,0.268364,-0.356687,-0.322134,1.32114,1.20281,-0.201129,0.0,-0.337311,-0.167781,-0.342255,-0.244527
0.0,0.0,0.0,0.0,0.0,0.0,0.0,0.0,0.0,0.0,0.0,0.0,0.0,0.0,0.0,0.0,0.0,0.0,0.0,0.0,0.0,0.0,1.0,0.0,0.0,0.0,0.0,0.0,-0.642402,0.0929515,0.227752,0.268364,-0.356687,-0.322134,1.32114,1.20281,-0.201129,0.0,-0.337311,0.354217,-0.342255,-0.244527
0.0,0.0,0.0,0.0,0.0,0.0,0.0,0.0,0.0,0.0,0.0,0.0,0.0,0.0,0.0,0.0,0.0,0.0,0.0,0.0,0.0,0.0,1.0,0.0,0.0,0.0,0.0,0.0,-0.642402,0.0929515,0.227752,0.268364,-0.356687,-0.322134,1.32114,1.20281,-0.201129,0.0,-0.337311,-0.55754,-0.342255,-0.244527
0.0,0.0,0.0,0.0,0.0,0.0,0.0,0.0,0.0,0.0,0.0,0.0,0.0,0.0,0.0,0.0,0.0,0.0,0.0,0.0,0.0,0.0,1.0,0.0,0.0,0.0,0.0,0.0,-0.642402,0.0929515,0.227752,0.268364,-0.356687,-0.322134,1.32114,1.20281,-0.201129,0.0,-0.337311,0.242858,-0.342255,-0.244527
0.0,0.0,0.0,0.0,0.0,0.0,0.0,0.0,0.0,0.0,0.0,0.0,0.0,0.0,0.0,0.0,0.0,0.0,0.0,0.0,0.0,0.0,1.0,0.0,0.0,0.0,0.0,0.0,-0.471237,0.505014,-0.130012,-0.792715,-0.0431267,-0.392117,1.40827,1.29048,-0.201129,0.0,-0.337311,0.514297,-0.342255,-0.244527
0.0,0.0,0.0,0.0,0.0,0.0,0.0,0.0,0.0,0.0,0.0,0.0,0.0,0.0,0.0,0.0,0.0,0.0,0.0,0.0,0.0,0.0,1.0,0.0,0.0,0.0,0.0,0.0,-0.642402,0.0929515,0.227752,0.268364,-0.356687,-0.322134,1.32114,1.20281,-0.201129,0.0,-0.337311,-0.251301,-0.342255,-0.244527
0.0,0.0,0.0,0.0,0.0,0.0,0.0,0.0,0.0,0.0,0.0,0.0,0.0,0.0,0.0,0.0,0.0,0.0,0.0,0.0,0.0,0.0,1.0,0.0,0.0,0.0,0.0,0.0,-0.642402,0.0929515,0.227752,0.268364,-0.356687,-0.322134,1.32114,1.20281,-0.201129,0.0,-0.337311,0.152378,-0.342255,-0.244527
0.0,0.0,0.0,0.0,0.0,0.0,0.0,0.0,0.0,0.0,0.0,0.0,0.0,0.0,0.0,0.0,0.0,0.0,0.0,0.0,0.0,0.0,1.0,0.0,0.0,0.0,0.0,0.0,-0.471237,0.505014,-0.130012,-0.792715,-0.0431267,-0.392117,1.40827,1.29048,-0.201129,0.0,-0.337311,0.437737,-0.342255,-0.244527
0.0,0.0,0.0,0.0,0.0,0.0,0.0,0.0,0.0,0.0,0.0,0.0,0.0,0.0,0.0,0.0,0.0,0.0,0.0,0.0,0.0,0.0,1.0,0.0,0.0,0.0,0.0,0.0,-0.642402,0.0929515,0.227752,0.268364,-0.356687,-0.322134,1.32114,1.20281,-0.201129,0.0,-0.337311,0.138458,-0.342255,-0.244527
0.0,0.0,0.0,0.0,0.0,0.0,0.0,0.0,0.0,0.0,0.0,0.0,0.0,0.0,0.0,0.0,0.0,0.0,0.0,0.0,0.0,0.0,1.0,0.0,0.0,0.0,0.0,0.0,-0.642402,0.0929515,0.227752,0.268364,-0.356687,-0.322134,1.32114,1.20281,-0.201129,0.0,-0.337311,-1.1909,-0.342255,-0.244527
0.0,0.0,0.0,0.0,0.0,0.0,0.0,0.0,0.0,0.0,0.0,0.0,0.0,0.0,0.0,0.0,0.0,0.0,0.0,0.0,0.0,0.0,1.0,0.0,0.0,0.0,0.0,0.0,-0.471237,0.505014,-0.130012,-0.792715,-0.0431267,-0.392117,1.40827,1.29048,-0.201129,0.0,-0.337311,0.667416,-0.342255,-0.244527
0.0,0.0,0.0,0.0,0.0,0.0,0.0,0.0,0.0,0.0,0.0,0.0,0.0,0.0,0.0,0.0,0.0,0.0,0.0,0.0,0.0,0.0,1.0,0.0,0.0,0.0,0.0,0.0,-0.642402,0.0929515,0.227752,0.268364,-0.356687,-0.322134,1.32114,1.20281,-0.201129,0.0,-0.337311,0.750936,-0.342255,-0.244527
0.0,0.0,0.0,0.0,0.0,0.0,0.0,0.0,0.0,0.0,0.0,0.0,0.0,0.0,0.0,0.0,0.0,0.0,0.0,0.0,0.0,0.0,0.0,1.0,0.0,0.0,0.0,0.0,-0.556819,0.018031,0.227752,-1.05799,0.0744583,2.65214,0.907278,1.64116,-0.201129,0.0,-0.337311,0.973655,-0.0767761,0.172783
0.0,0.0,0.0,0.0,0.0,0.0,0.0,0.0,0.0,0.0,0.0,0.0,0.0,0.0,0.0,0.0,0.0,0.0,0.0,0.0,0.0,0.0,0.0,1.0,0.0,0.0,0.0,0.0,-0.428445,0.130412,0.108498,0.400999,-0.00393169,2.73962,0.92906,2.25483,-0.201129,0.0,-0.337311,0.500377,-0.0767761,0.172783
0.0,0.0,0.0,0.0,0.0,0.0,0.0,0.0,0.0,0.0,0.0,0.0,0.0,0.0,0.0,0.0,0.0,0.0,0.0,0.0,0.0,0.0,0.0,1.0,0.0,0.0,0.0,0.0,-0.556819,0.018031,0.227752,-1.05799,0.0744583,2.65214,0.907278,1.64116,-0.201129,0.0,-0.337311,0.883176,-0.0767761,0.172783
0.0,0.0,0.0,0.0,0.0,0.0,0.0,0.0,0.0,0.0,0.0,0.0,0.0,0.0,0.0,0.0,0.0,0.0,0.0,0.0,0.0,0.0,0.0,1.0,0.0,0.0,0.0,0.0,-0.428445,0.130412,0.108498,0.400999,-0.00393169,2.73962,0.92906,2.25483,-0.201129,0.0,-0.337311,0.145418,-0.0767761,0.172783
0.0,0.0,0.0,0.0,0.0,0.0,0.0,0.0,0.0,0.0,0.0,0.0,0.0,0.0,0.0,0.0,0.0,0.0,0.0,0.0,0.0,0.0,0.0,1.0,0.0,0.0,0.0,0.0,-0.556819,0.018031,0.227752,-1.05799,0.0744583,2.65214,0.907278,1.64116,-0.201129,0.0,-0.337311,0.945815,-0.0767761,0.172783
0.0,0.0,0.0,0.0,0.0,0.0,0.0,0.0,0.0,0.0,0.0,0.0,0.0,0.0,0.0,0.0,0.0,0.0,0.0,0.0,0.0,0.0,0.0,1.0,0.0,0.0,0.0,0.0,-0.556819,0.018031,0.227752,-1.05799,0.0744583,2.65214,0.907278,1.64116,-0.201129,0.0,-0.337311,-0.258261,-0.0767761,0.172783
0.0,0.0,0.0,0.0,0.0,0.0,0.0,0.0,0.0,0.0,0.0,0.0,0.0,0.0,0.0,0.0,0.0,0.0,0.0,0.0,0.0,0.0,0.0,1.0,0.0,0.0,0.0,0.0,-0.556819,0.018031,0.227752,-1.05799,0.0744583,2.65214,0.907278,1.64116,-0.201129,0.0,-0.337311,0.604776,-0.0767761,0.172783
0.0,0.0,0.0,0.0,0.0,0.0,0.0,0.0,0.0,0.0,0.0,0.0,0.0,0.0,0.0,0.0,0.0,0.0,0.0,0.0,0.0,0.0,0.0,1.0,0.0,0.0,0.0,0.0,-0.428445,0.130412,0.108498,0.400999,-0.00393169,2.73962,0.92906,2.25483,-0.201129,0.0,-0.337311,0.0758183,-0.0767761,0.172783
0.0,0.0,0.0,0.0,0.0,0.0,0.0,0.0,0.0,0.0,0.0,0.0,0.0,0.0,0.0,0.0,0.0,0.0,0.0,0.0,0.0,0.0,0.0,1.0,0.0,0.0,0.0,0.0,-0.428445,0.130412,0.108498,0.400999,-0.00393169,2.73962,0.92906,2.25483,-0.201129,0.0,-0.337311,0.883176,-0.0767761,0.172783
0.0,0.0,0.0,0.0,0.0,0.0,0.0,0.0,0.0,0.0,0.0,0.0,0.0,0.0,0.0,0.0,0.0,0.0,0.0,0.0,0.0,0.0,0.0,1.0,0.0,0.0,0.0,0.0,-0.556819,0.018031,0.227752,-1.05799,0.0744583,2.65214,0.907278,1.64116,-0.201129,0.0,-0.337311,0.604776,-0.0767761,0.172783
0.0,0.0,0.0,0.0,0.0,0.0,0.0,0.0,0.0,0.0,0.0,0.0,0.0,0.0,0.0,0.0,0.0,0.0,0.0,0.0,0.0,0.0,0.0,1.0,0.0,0.0,0.0,0.0,-0.428445,0.130412,0.108498,0.400999,-0.00393169,2.73962,0.92906,2.25483,-0.201129,0.0,-0.337311,0.841416,-0.0767761,0.172783
0.0,0.0,0.0,0.0,0.0,0.0,0.0,0.0,0.0,0.0,0.0,0.0,0.0,0.0,0.0,0.0,0.0,0.0,0.0,0.0,0.0,0.0,0.0,1.0,0.0,0.0,0.0,0.0,-0.428445,0.130412,0.108498,0.400999,-0.00393169,2.73962,0.92906,2.25483,-0.201129,0.0,-0.337311,0.173258,-0.0767761,0.172783
0.0,0.0,0.0,0.0,0.0,0.0,0.0,0.0,0.0,0.0,0.0,0.0,0.0,0.0,0.0,0.0,0.0,0.0,0.0,0.0,0.0,0.0,0.0,1.0,0.0,0.0,0.0,0.0,-0.428445,0.130412,0.108498,0.400999,-0.00393169,2.73962,0.92906,2.25483,-0.201129,0.0,-0.337311,-1.55978,-0.0767761,0.172783
0.0,0.0,0.0,0.0,0.0,0.0,0.0,0.0,0.0,0.0,0.0,0.0,0.0,0.0,0.0,0.0,0.0,0.0,0.0,0.0,0.0,0.0,0.0,1.0,0.0,0.0,0.0,0.0,-0.556819,0.018031,0.227752,-1.05799,0.0744583,2.65214,0.907278,1.64116,-0.201129,0.0,-0.337311,-0.48794,-0.0767761,0.172783
0.0,0.0,0.0,0.0,0.0,0.0,0.0,0.0,0.0,0.0,0.0,0.0,0.0,0.0,0.0,0.0,0.0,0.0,0.0,0.0,0.0,0.0,0.0,1.0,0.0,0.0,0.0,0.0,-0.428445,0.130412,0.108498,0.400999,-0.00393169,2.73962,0.92906,2.25483,-0.201129,0.0,-0.337311,-1.6781,-0.0767761,0.172783
0.0,0.0,0.0,0.0,0.0,0.0,0.0,1.0,0.0,0.0,0.0,0.0,0.0,0.0,0.0,0.0,0.0,0.0,0.0,0.0,0.0,0.0,0.0,0.0,0.0,0.0,0.0,0.0,-0.685193,-0.431492,0.108498,-0.394811,-0.199907,2.8271,-0.682832,1.37815,-0.201129,0.0,-0.337311,-0.41834,2.97865,2.63491
0.0,0.0,0.0,0.0,0.0,0.0,0.0,1.0,0.0,0.0,0.0,0.0,0.0,0.0,0.0,0.0,0.0,0.0,0.0,0.0,0.0,0.0,0.0,0.0,0.0,0.0,0.0,0.0,-0.685193,-0.431492,0.108498,-0.394811,-0.199907,2.8271,-0.682832,1.37815,-0.201129,0.0,-0.337311,-0.32786,2.97865,2.63491
0.0,0.0,0.0,0.0,0.0,0.0,0.0,1.0,0.0,0.0,0.0,0.0,0.0,0.0,0.0,0.0,0.0,0.0,0.0,0.0,0.0,0.0,0.0,0.0,0.0,0.0,0.0,0.0,-0.685193,-0.431492,0.108498,-0.394811,-0.199907,2.8271,-0.682832,1.37815,-0.201129,0.0,-0.337311,-0.0773012,2.97865,2.63491
0.0,0.0,0.0,0.0,0.0,0.0,0.0,1.0,0.0,0.0,0.0,0.0,0.0,0.0,0.0,0.0,0.0,0.0,0.0,0.0,0.0,0.0,0.0,0.0,0.0,0.0,0.0,0.0,-0.685193,-0.431492,0.108498,-0.394811,-0.199907,2.8271,-0.682832,1.37815,-0.201129,0.0,-0.337311,-0.146901,2.97865,2.63491
0.0,0.0,0.0,0.0,0.0,0.0,0.0,1.0,0.0,0.0,0.0,0.0,0.0,0.0,0.0,0.0,0.0,0.0,0.0,0.0,0.0,0.0,0.0,0.0,0.0,0.0,0.0,0.0,-0.685193,-0.431492,0.108498,-0.394811,-0.199907,2.8271,-0.682832,1.37815,-0.201129,0.0,-0.337311,-1.45538,2.97865,2.63491
0.0,0.0,0.0,0.0,0.0,0.0,0.0,1.0,0.0,0.0,0.0,0.0,0.0,0.0,0.0,0.0,0.0,0.0,0.0,0.0,0.0,0.0,0.0,0.0,0.0,0.0,0.0,0.0,-0.685193,-0.431492,0.108498,-0.394811,-0.199907,2.8271,-0.682832,1.37815,-0.201129,0.0,-0.337311,0.284618,2.97865,2.63491
0.0,0.0,0.0,0.0,0.0,0.0,0.0,1.0,0.0,0.0,0.0,0.0,0.0,0.0,0.0,0.0,0.0,0.0,0.0,0.0,0.0,0.0,0.0,0.0,0.0,0.0,0.0,0.0,-0.685193,-0.431492,0.108498,-0.394811,-0.199907,2.8271,-0.682832,1.37815,-0.201129,0.0,-0.337311,-0.759379,2.97865,2.63491
0.0,0.0,0.0,0.0,0.0,0.0,0.0,0.0,0.0,0.0,0.0,0.0,0.0,0.0,0.0,0.0,0.0,0.0,0.0,0.0,0.0,0.0,0.0,0.0,1.0,0.0,0.0,0.0,-0.428445,-0.244191,1.06253,1.06417,-0.317492,-0.269647,1.21223,-0.638219,-0.201129,0.0,-0.337311,-0.0981811,-0.921482,-0.638654
0.0,0.0,0.0,0.0,0.0,0.0,0.0,0.0,0.0,0.0,0.0,0.0,0.0,0.0,0.0,0.0,0.0,0.0,0.0,0.0,0.0,0.0,0.0,0.0,1.0,0.0,0.0,0.0,-0.428445,-0.244191,1.06253,1.06417,-0.317492,-0.269647,1.21223,-0.638219,-0.201129,0.0,-0.337311,0.249818,-0.921482,-0.638654
0.0,0.0,0.0,0.0,0.0,0.0,0.0,0.0,0.0,0.0,0.0,0.0,0.0,0.0,0.0,0.0,0.0,0.0,0.0,0.0,0.0,0.0,0.0,0.0,1.0,0.0,0.0,0.0,-0.428445,-0.244191,1.06253,1.06417,-0.317492,-0.269647,1.21223,-0.638219,-0.201129,0.0,-0.337311,0.451657,-0.921482,-0.638654
0.0,0.0,0.0,0.0,0.0,0.0,0.0,0.0,0.0,0.0,0.0,0.0,0.0,0.0,0.0,0.0,0.0,0.0,0.0,0.0,0.0,0.0,0.0,0.0,1.0,0.0,0.0,0.0,-0.428445,-0.244191,1.06253,1.06417,-0.317492,-0.269647,1.21223,-0.638219,-0.201129,0.0,-0.337311,0.542137,-0.921482,-0.638654
0.0,0.0,0.0,0.0,0.0,0.0,0.0,0.0,0.0,0.0,0.0,0.0,0.0,0.0,0.0,0.0,0.0,0.0,0.0,0.0,0.0,0.0,0.0,0.0,1.0,0.0,0.0,0.0,-0.428445,-0.244191,1.06253,1.06417,-0.317492,-0.269647,1.21223,-0.638219,-0.201129,0.0,-0.337311,-0.675859,-0.921482,-0.638654
0.0,0.0,0.0,0.0,0.0,0.0,0.0,0.0,0.0,0.0,0.0,0.0,0.0,0.0,0.0,0.0,0.0,0.0,0.0,0.0,0.0,0.0,0.0,0.0,1.0,0.0,0.0,0.0,-0.428445,-0.244191,1.06253,1.06417,-0.317492,-0.269647,1.21223,-0.638219,-0.201129,0.0,-0.337311,0.806616,-0.921482,-0.638654
0.0,0.0,0.0,0.0,0.0,0.0,0.0,0.0,0.0,0.0,0.0,0.0,0.0,0.0,0.0,0.0,0.0,0.0,0.0,0.0,0.0,0.0,0.0,0.0,1.0,0.0,0.0,0.0,-0.428445,-0.244191,1.06253,1.06417,-0.317492,-0.269647,1.21223,-0.638219,-0.201129,0.0,-0.337311,-0.0703412,-0.921482,-0.638654
0.0,0.0,0.0,0.0,0.0,0.0,0.0,0.0,0.0,0.0,0.0,0.0,0.0,0.0,0.0,0.0,0.0,0.0,0.0,0.0,0.0,0.0,0.0,0.0,0.0,1.0,0.0,0.0,0.427381,0.505014,-0.60703,-0.792715,-0.0823217,-0.392117,0.907278,-0.638219,-0.201129,0.0,-0.337311,1.18245,-1.01802,0.0754108
0.0,0.0,0.0,0.0,0.0,0.0,0.0,0.0,0.0,0.0,0.0,0.0,0.0,0.0,0.0,0.0,0.0,0.0,0.0,0.0,0.0,0.0,0.0,0.0,0.0,1.0,0.0,0.0,0.427381,0.505014,-0.60703,-0.792715,-0.0823217,-0.392117,0.907278,-0.638219,-0.201129,0.0,-0.337311,1.25901,-1.01802,0.0754108
0.0,0.0,0.0,0.0,0.0,0.0,0.0,0.0,0.0,0.0,0.0,0.0,0.0,0.0,0.0,0.0,0.0,0.0,0.0,0.0,0.0,0.0,0.0,0.0,0.0,1.0,0.0,0.0,0.427381,0.505014,-0.60703,-0.792715,-0.0823217,-0.392117,0.907278,-0.638219,-0.201129,0.0,-0.337311,1.27989,-1.01802,0.0754108
0.0,0.0,0.0,0.0,0.0,0.0,0.0,0.0,0.0,0.0,0.0,0.0,0.0,0.0,0.0,0.0,0.0,0.0,0.0,0.0,0.0,0.0,0.0,0.0,0.0,1.0,0.0,0.0,0.427381,0.505014,-0.60703,-0.792715,-0.0823217,-0.392117,0.907278,-0.638219,-0.201129,0.0,-0.337311,0.0131785,-1.01802,0.0754108
0.0,0.0,0.0,0.0,0.0,0.0,0.0,0.0,0.0,0.0,0.0,0.0,0.0,0.0,0.0,0.0,0.0,0.0,0.0,0.0,0.0,0.0,0.0,0.0,0.0,1.0,0.0,0.0,0.427381,0.505014,-0.60703,-0.792715,-0.0823217,-0.392117,0.907278,-0.638219,-0.201129,0.0,-0.337311,-1.55978,-1.01802,0.0754108
0.0,0.0,0.0,0.0,0.0,0.0,0.0,0.0,0.0,0.0,0.0,0.0,0.0,0.0,0.0,0.0,0.0,0.0,0.0,0.0,0.0,0.0,0.0,0.0,0.0,1.0,0.0,0.0,0.427381,0.505014,-0.60703,-0.792715,-0.0823217,-0.392117,0.907278,-0.638219,-0.201129,0.0,-0.337311,-0.55754,-1.01802,0.0754108
0.0,0.0,0.0,0.0,0.0,0.0,0.0,0.0,0.0,0.0,0.0,0.0,0.0,0.0,0.0,0.0,0.0,0.0,0.0,0.0,0.0,0.0,0.0,0.0,0.0,1.0,0.0,0.0,0.427381,0.505014,-0.60703,-0.792715,-0.0823217,-0.392117,0.907278,-0.638219,-0.201129,0.0,-0.337311,0.124538,-1.01802,0.0754108
0.0,0.0,0.0,0.0,0.0,0.0,0.0,0.0,0.0,1.0,0.0,0.0,0.0,0.0,0.0,0.0,0.0,0.0,0.0,0.0,0.0,0.0,0.0,0.0,0.0,0.0,0.0,0.0,-0.385654,-0.0194292,0.227752,0.00309413,-0.0431267,-0.287143,1.19045,-0.638219,4.97192,0.0,-0.337311,-0.119061,3.27791,2.3428
0.0,0.0,0.0,0.0,0.0,0.0,0.0,0.0,0.0,1.0,0.0,0.0,0.0,0.0,0.0,0.0,0.0,0.0,0.0,0.0,0.0,0.0,0.0,0.0,0.0,0.0,0.0,0.0,-0.385654,-0.0194292,0.227752,0.00309413,-0.0431267,-0.287143,1.19045,-0.638219,4.97192,0.0,-0.337311,-0.112101,3.27791,2.3428
0.0,0.0,0.0,0.0,0.0,0.0,0.0,0.0,0.0,1.0,0.0,0.0,0.0,0.0,0.0,0.0,0.0,0.0,0.0,0.0,0.0,0.0,0.0,0.0,0.0,0.0,0.0,0.0,-0.385654,-0.0194292,0.227752,0.00309413,-0.0431267,-0.287143,1.19045,-0.638219,4.97192,0.0,-0.337311,0.911015,3.27791,2.3428
0.0,0.0,0.0,0.0,0.0,0.0,0.0,0.0,0.0,1.0,0.0,0.0,0.0,0.0,0.0,0.0,0.0,0.0,0.0,0.0,0.0,0.0,0.0,0.0,0.0,0.0,0.0,0.0,-0.385654,-0.0194292,0.227752,0.00309413,-0.0431267,-0.287143,1.19045,-0.638219,4.97192,0.0,-0.337311,-0.3905,3.27791,2.3428
0.0,0.0,0.0,0.0,0.0,0.0,0.0,0.0,0.0,1.0,0.0,0.0,0.0,0.0,0.0,0.0,0.0,0.0,0.0,0.0,0.0,0.0,0.0,0.0,0.0,0.0,0.0,0.0,-0.385654,-0.0194292,0.227752,0.00309413,-0.0431267,-0.287143,1.19045,-0.638219,4.97192,0.0,-0.337311,0.813576,3.27791,2.3428
0.0,0.0,0.0,0.0,0.0,0.0,0.0,0.0,0.0,1.0,0.0,0.0,0.0,0.0,0.0,0.0,0.0,0.0,0.0,0.0,0.0,0.0,0.0,0.0,0.0,0.0,0.0,0.0,-0.385654,-0.0194292,0.227752,0.00309413,-0.0431267,-0.287143,1.19045,-0.638219,4.97192,0.0,-0.337311,0.0688583,3.27791,2.3428
0.0,0.0,0.0,0.0,0.0,0.0,0.0,0.0,0.0,1.0,0.0,0.0,0.0,0.0,0.0,0.0,0.0,0.0,0.0,0.0,0.0,0.0,0.0,0.0,0.0,0.0,0.0,0.0,-0.385654,-0.0194292,0.227752,0.00309413,-0.0431267,-0.287143,1.19045,-0.638219,4.97192,0.0,-0.337311,-1.4345,3.27791,2.3428
0.0,0.0,0.0,0.0,0.0,0.0,0.0,0.0,0.0,0.0,0.0,0.0,0.0,0.0,0.0,0.0,0.0,0.0,0.0,0.0,0.0,0.0,0.0,0.0,0.0,0.0,1.0,0.0,-0.0433237,0.242792,0.466261,-1.32326,0.152848,-0.392117,1.32114,-0.638219,-0.201129,0.0,-0.337311,1.49565,-0.342255,-0.174975
0.0,0.0,0.0,0.0,0.0,0.0,0.0,0.0,0.0,0.0,0.0,0.0,0.0,0.0,0.0,0.0,0.0,0.0,0.0,0.0,0.0,0.0,0.0,0.0,0.0,0.0,1.0,0.0,-0.0433237,0.242792,0.466261,-1.32326,0.152848,-0.392117,1.32114,-0.638219,-0.201129,0.0,-0.337311,0.0897382,-0.342255,-0.174975
0.0,0.0,0.0,0.0,0.0,0.0,0.0,0.0,0.0,0.0,0.0,0.0,0.0,0.0,0.0,0.0,0.0,0.0,0.0,0.0,0.0,0.0,0.0,0.0,0.0,0.0,1.0,0.0,-0.0433237,0.242792,0.466261,-1.32326,0.152848,-0.392117,1.32114,-0.638219,-0.201129,0.0,-0.337311,0.458617,-0.342255,-0.174975
0.0,0.0,0.0,0.0,0.0,0.0,0.0,0.0,0.0,0.0,0.0,0.0,0.0,0.0,0.0,0.0,0.0,0.0,0.0,0.0,0.0,0.0,0.0,0.0,0.0,0.0,1.0,0.0,-0.0433237,0.242792,0.466261,-1.32326,0.152848,-0.392117,1.32114,-0.638219,-0.201129,0.0,-0.337311,0.792696,-0.342255,-0.174975
0.0,0.0,0.0,0.0,0.0,0.0,0.0,0.0,0.0,0.0,0.0,0.0,0.0,0.0,0.0,0.0,0.0,0.0,0.0,0.0,0.0,0.0,0.0,0.0,0.0,0.0,1.0,0.0,-0.0433237,0.242792,0.466261,-1.32326,0.152848,-0.392117,1.32114,-0.638219,-0.201129,0.0,-0.337311,0.375097,-0.342255,-0.174975
0.0,0.0,0.0,0.0,0.0,0.0,0.0,0.0,0.0,0.0,0.0,0.0,0.0,0.0,0.0,0.0,0.0,0.0,0.0,0.0,0.0,0.0,0.0,0.0,0.0,0.0,1.0,0.0,-0.0433237,0.242792,0.466261,-1.32326,0.152848,-0.392117,1.32114,-0.638219,-0.201129,0.0,-0.337311,0.681336,-0.342255,-0.174975
0.0,0.0,0.0,0.0,0.0,0.0,0.0,0.0,0.0,0.0,0.0,0.0,0.0,0.0,0.0,0.0,0.0,0.0,0.0,0.0,0.0,0.0,0.0,0.0,0.0,0.0,1.0,0.0,-0.0433237,0.242792,0.466261,-1.32326,0.152848,-0.392117,1.32114,-0.638219,-0.201129,0.0,-0.337311,0.966695,-0.342255,-0.174975
0.0,0.0,0.0,0.0,0.0,0.0,0.0,0.0,0.0,0.0,0.0,0.0,0.0,0.0,0.0,0.0,0.0,0.0,0.0,0.0,0.0,0.0,0.0,0.0,0.0,0.0,1.0,0.0,-0.0433237,0.242792,0.466261,-1.32326,0.152848,-0.392117,1.32114,-0.638219,-0.201129,0.0,-0.337311,-2.22097,-0.342255,-0.174975
0.0,0.0,0.0,0.0,0.0,0.0,0.0,0.0,0.0,0.0,0.0,0.0,0.0,0.0,0.0,0.0,0.0,0.0,0.0,0.0,0.0,0.0,0.0,0.0,0.0,0.0,0.0,1.0,0.127842,0.130412,-0.60703,-0.262176,5.40498,-0.392117,0.863713,-0.550551,-0.201129,0.0,-0.337311,0.235898,-0.36639,-0.221343
0.0,0.0,0.0,0.0,0.0,0.0,0.0,0.0,0.0,0.0,0.0,0.0,0.0,0.0,0.0,0.0,0.0,0.0,0.0,0.0,0.0,0.0,0.0,0.0,0.0,0.0,0.0,1.0,0.127842,0.130412,-0.60703,-0.262176,5.40498,-0.392117,0.863713,-0.550551,-0.201129,0.0,-0.337311,1.03629,-0.36639,-0.221343
0.0,0.0,0.0,0.0,0.0,0.0,0.0,0.0,0.0,0.0,0.0,0.0,0.0,0.0,0.0,0.0,0.0,0.0,0.0,0.0,0.0,0.0,0.0,0.0,0.0,0.0,0.0,1.0,0.127842,0.130412,-0.60703,-0.262176,5.40498,-0.392117,0.863713,-0.550551,-0.201129,0.0,-0.337311,1.20333,-0.36639,-0.221343
0.0,0.0,0.0,0.0,0.0,0.0,0.0,0.0,0.0,0.0,0.0,0.0,0.0,0.0,0.0,0.0,0.0,0.0,0.0,0.0,0.0,0.0,0.0,0.0,0.0,0.0,0.0,1.0,0.127842,0.130412,-0.60703,-0.262176,5.40498,-0.392117,0.863713,-0.550551,-0.201129,0.0,-0.337311,-0.3557,-0.36639,-0.221343
0.0,0.0,0.0,0.0,0.0,0.0,0.0,0.0,0.0,0.0,0.0,0.0,0.0,0.0,0.0,0.0,0.0,0.0,0.0,0.0,0.0,0.0,0.0,0.0,0.0,0.0,0.0,1.0,0.127842,0.130412,-0.60703,-0.262176,5.40498,-0.392117,0.863713,-0.550551,-0.201129,0.0,-0.337311,0.451657,-0.36639,-0.221343
0.0,0.0,0.0,0.0,0.0,0.0,0.0,0.0,1.0,0.0,0.0,0.0,0.0,0.0,0.0,0.0,0.0,0.0,0.0,0.0,0.0,0.0,0.0,0.0,0.0,0.0,0.0,0.0,2.13903,-1.29308,-0.010757,-1.32326,-0.0431267,-0.392117,2.27956,-0.638219,-0.201129,0.0,-0.337311,1.46781,-0.125045,2.7462
0.0,0.0,0.0,0.0,0.0,0.0,0.0,0.0,1.0,0.0,0.0,0.0,0.0,0.0,0.0,0.0,0.0,0.0,0.0,0.0,0.0,0.0,0.0,0.0,0.0,0.0,0.0,0.0,2.13903,-1.29308,-0.010757,-1.32326,-0.0431267,-0.392117,2.27956,-0.638219,-0.201129,0.0,-0.337311,-0.2861,-0.125045,2.7462
0.0,0.0,0.0,0.0,0.0,0.0,0.0,0.0,1.0,0.0,0.0,0.0,0.0,0.0,0.0,0.0,0.0,0.0,0.0,0.0,0.0,0.0,0.0,0.0,0.0,0.0,0.0,0.0,2.13903,-1.29308,-0.010757,-1.32326,-0.0431267,-0.392117,2.27956,-0.638219,-0.201129,0.0,-0.337311,0.778776,-0.125045,2.7462
0.0,0.0,0.0,0.0,0.0,0.0,0.0,0.0,1.0,0.0,0.0,0.0,0.0,0.0,0.0,0.0,0.0,0.0,0.0,0.0,0.0,0.0,0.0,0.0,0.0,0.0,0.0,0.0,2.13903,-1.29308,-0.010757,-1.32326,-0.0431267,-0.392117,2.27956,-0.638219,-0.201129,0.0,-0.337311,1.09197,-0.125045,2.7462
0.0,0.0,0.0,0.0,0.0,0.0,0.0,0.0,1.0,0.0,0.0,0.0,0.0,0.0,0.0,0.0,0.0,0.0,0.0,0.0,0.0,0.0,0.0,0.0,0.0,0.0,0.0,0.0,2.13903,-1.29308,-0.010757,-1.32326,-0.0431267,-0.392117,2.27956,-0.638219,-0.201129,0.0,-0.337311,0.604776,-0.125045,2.7462
0.0,0.0,0.0,0.0,0.0,0.0,0.0,0.0,1.0,0.0,0.0,0.0,0.0,0.0,0.0,0.0,0.0,0.0,0.0,0.0,0.0,0.0,0.0,0.0,0.0,0.0,0.0,0.0,2.13903,-1.29308,-0.010757,-1.32326,-0.0431267,-0.392117,2.27956,-0.638219,-0.201129,0.0,-0.337311,1.04325,-0.125045,2.7462
0.0,0.0,0.0,0.0,0.0,0.0,0.0,0.0,1.0,0.0,0.0,0.0,0.0,0.0,0.0,0.0,0.0,0.0,0.0,0.0,0.0,0.0,0.0,0.0,0.0,0.0,0.0,0.0,2.13903,-1.29308,-0.010757,-1.32326,-0.0431267,-0.392117,2.27956,-0.638219,-0.201129,0.0,-0.337311,1.22421,-0.125045,2.7462
0.0,0.0,0.0,0.0,0.0,0.0,0.0,0.0,1.0,0.0,0.0,0.0,0.0,0.0,0.0,0.0,0.0,0.0,0.0,0.0,0.0,0.0,0.0,0.0,0.0,0.0,0.0,0.0,2.13903,-1.29308,-0.010757,-1.32326,-0.0431267,-0.392117,2.27956,-0.638219,-0.201129,0.0,-0.337311,-2.40193,-0.125045,2.7462
1.0,0.0,0.0,0.0,0.0,0.0,0.0,0.0,0.0,0.0,0.0,0.0,0.0,0.0,0.0,0.0,0.0,0.0,0.0,0.0,0.0,0.0,0.0,0.0,0.0,0.0,0.0,0.0,-0.89915,-0.843555,-1.2033,0.268364,-0.552662,-0.392117,-0.780852,-0.638219,-0.201129,0.0,2.62872,-0.43922,-0.221583,-0.847309
1.0,0.0,0.0,0.0,0.0,0.0,0.0,0.0,0.0,0.0,0.0,0.0,0.0,0.0,0.0,0.0,0.0,0.0,0.0,0.0,0.0,0.0,0.0,0.0,0.0,0.0,0.0,0.0,-0.89915,-0.843555,-1.2033,0.268364,-0.552662,-0.392117,-0.780852,-0.638219,-0.201129,0.0,2.62872,0.117578,-0.221583,-0.847309
1.0,0.0,0.0,0.0,0.0,0.0,0.0,0.0,0.0,0.0,0.0,0.0,0.0,0.0,0.0,0.0,0.0,0.0,0.0,0.0,0.0,0.0,0.0,0.0,0.0,0.0,0.0,0.0,-0.89915,-0.843555,-1.2033,0.268364,-0.552662,-0.392117,-0.780852,-0.638219,-0.201129,0.0,2.62872,0.430777,-0.221583,-0.847309
1.0,0.0,0.0,0.0,0.0,0.0,0.0,0.0,0.0,0.0,0.0,0.0,0.0,0.0,0.0,0.0,0.0,0.0,0.0,0.0,0.0,0.0,0.0,0.0,0.0,0.0,0.0,0.0,-0.89915,-0.843555,-1.2033,0.268364,-0.552662,-0.392117,-0.780852,-0.638219,-0.201129,0.0,2.62872,0.395977,-0.221583,-0.847309
1.0,0.0,0.0,0.0,0.0,0.0,0.0,0.0,0.0,0.0,0.0,0.0,0.0,0.0,0.0,0.0,0.0,0.0,0.0,0.0,0.0,0.0,0.0,0.0,0.0,0.0,0.0,0.0,-0.89915,-0.843555,-1.2033,0.268364,-0.552662,-0.392117,-0.780852,-0.638219,-0.201129,0.0,2.62872,-1.79642,-0.221583,-0.847309
1.0,0.0,0.0,0.0,0.0,0.0,0.0,0.0,0.0,0.0,0.0,0.0,0.0,0.0,0.0,0.0,0.0,0.0,0.0,0.0,0.0,0.0,0.0,0.0,0.0,0.0,0.0,0.0,-0.89915,-0.843555,-1.2033,0.268364,-0.552662,-0.392117,-0.780852,-0.638219,-0.201129,0.0,2.62872,-0.926418,-0.221583,-0.847309
0.0,0.0,1.0,0.0,0.0,0.0,0.0,0.0,0.0,0.0,0.0,0.0,0.0,0.0,0.0,0.0,0.0,0.0,0.0,0.0,0.0,0.0,0.0,0.0,0.0,0.0,0.0,0.0,0.170633,-0.768634,-0.60703,-1.19062,-0.239102,-0.392117,-0.769961,-0.638219,-0.201129,0.0,-0.337311,1.43997,0.357644,-0.221343
0.0,0.0,1.0,0.0,0.0,0.0,0.0,0.0,0.0,0.0,0.0,0.0,0.0,0.0,0.0,0.0,0.0,0.0,0.0,0.0,0.0,0.0,0.0,0.0,0.0,0.0,0.0,0.0,0.170633,-0.768634,-0.60703,-1.19062,-0.239102,-0.392117,-0.769961,-0.638219,-0.201129,0.0,-0.337311,1.43997,0.357644,-0.221343
0.0,0.0,1.0,0.0,0.0,0.0,0.0,0.0,0.0,0.0,0.0,0.0,0.0,0.0,0.0,0.0,0.0,0.0,0.0,0.0,0.0,0.0,0.0,0.0,0.0,0.0,0.0,0.0,0.170633,-0.768634,-0.60703,-1.19062,-0.239102,-0.392117,-0.769961,-0.638219,-0.201129,0.0,-0.337311,-1.13522,0.357644,-0.221343
0.0,0.0,1.0,0.0,0.0,0.0,0.0,0.0,0.0,0.0,0.0,0.0,0.0,0.0,0.0,0.0,0.0,0.0,0.0,0.0,0.0,0.0,0.0,0.0,0.0,0.0,0.0,0.0,0.170633,-0.768634,-0.60703,-1.19062,-0.239102,-0.392117,-0.769961,-0.638219,-0.201129,0.0,-0.337311,-0.36962,0.357644,-0.221343
0.0,0.0,1.0,0.0,0.0,0.0,0.0,0.0,0.0,0.0,0.0,0.0,0.0,0.0,0.0,0.0,0.0,0.0,0.0,0.0,0.0,0.0,0.0,0.0,0.0,0.0,0.0,0.0,0.170633,-0.768634,-0.60703,-1.19062,-0.239102,-0.392117,-0.769961,-0.638219,-0.201129,0.0,-0.337311,0.604776,0.357644,-0.221343
0.0,0.0,1.0,0.0,0.0,0.0,0.0,0.0,0.0,0.0,0.0,0.0,0.0,0.0,0.0,0.0,0.0,0.0,0.0,0.0,0.0,0.0,0.0,0.0,0.0,0.0,0.0,0.0,0.170633,-0.768634,-0.60703,-1.19062,-0.239102,-0.392117,-0.769961,-0.638219,-0.201129,0.0,-0.337311,0.883176,0.357644,-0.221343
0.0,0.0,0.0,1.0,0.0,0.0,0.0,0.0,0.0,0.0,0.0,0.0,0.0,0.0,0.0,0.0,0.0,0.0,0.0,0.0,0.0,0.0,0.0,0.0,0.0,0.0,0.0,0.0,0.940876,-0.319111,-0.964793,-0.394811,-0.239102,-0.392117,-0.791743,-0.638219,-0.201129,0.0,-0.337311,1.75317,0.0921651,-0.267711
0.0,0.0,0.0,1.0,0.0,0.0,0.0,0.0,0.0,0.0,0.0,0.0,0.0,0.0,0.0,0.0,0.0,0.0,0.0,0.0,0.0,0.0,0.0,0.0,0.0,0.0,0.0,0.0,0.940876,-0.319111,-0.964793,-0.394811,-0.239102,-0.392117,-0.791743,-0.638219,-0.201129,0.0,-0.337311,0.0479784,0.0921651,-0.267711
0.0,0.0,0.0,1.0,0.0,0.0,0.0,0.0,0.0,0.0,0.0,0.0,0.0,0.0,0.0,0.0,0.0,0.0,0.0,0.0,0.0,0.0,0.0,0.0,0.0,0.0,0.0,0.0,0.940876,-0.319111,-0.964793,-0.394811,-0.239102,-0.392117,-0.791743,-0.638219,-0.201129,0.0,-0.337311,0.674376,0.0921651,-0.267711
0.0,0.0,0.0,1.0,0.0,0.0,0.0,0.0,0.0,0.0,0.0,0.0,0.0,0.0,0.0,0.0,0.0,0.0,0.0,0.0,0.0,0.0,0.0,0.0,0.0,0.0,0.0,0.0,0.940876,-0.319111,-0.964793,-0.394811,-0.239102,-0.392117,-0.791743,-0.638219,-0.201129,0.0,-0.337311,1.23117,0.0921651,-0.267711
0.0,0.0,0.0,1.0,0.0,0.0,0.0,0.0,0.0,0.0,0.0,0.0,0.0,0.0,0.0,0.0,0.0,0.0,0.0,0.0,0.0,0.0,0.0,0.0,0.0,0.0,0.0,0.0,0.940876,-0.319111,-0.964793,-0.394811,-0.239102,-0.392117,-0.791743,-0.638219,-0.201129,0.0,-0.337311,1.57917,0.0921651,-0.267711
0.0,0.0,0.0,1.0,0.0,0.0,0.0,0.0,0.0,0.0,0.0,0.0,0.0,0.0,0.0,0.0,0.0,0.0,0.0,0.0,0.0,0.0,0.0,0.0,0.0,0.0,0.0,0.0,0.940876,-0.319111,-0.964793,-0.394811,-0.239102,-0.392117,-0.791743,-0.638219,-0.201129,0.0,-0.337311,-1.76162,0.0921651,-0.267711
0.0,0.0,0.0,1.0,0.0,0.0,0.0,0.0,0.0,0.0,0.0,0.0,0.0,0.0,0.0,0.0,0.0,0.0,0.0,0.0,0.0,0.0,0.0,0.0,0.0,0.0,0.0,0.0,0.940876,-0.319111,-0.964793,-0.394811,-0.239102,-0.392117,-0.791743,-0.638219,-0.201129,0.0,-0.337311,-0.50882,0.0921651,-0.267711
0.0,0.0,0.0,0.0,1.0,0.0,0.0,0.0,0.0,0.0,0.0,0.0,0.0,0.0,0.0,0.0,0.0,0.0,0.0,0.0,0.0,0.0,0.0,0.0,0.0,0.0,0.0,0.0,1.58275,-0.731174,-0.60703,-0.527446,-0.709442,-0.392117,-0.791743,-0.638219,-0.201129,0.0,3.6174,1.57917,0.261106,-0.0544191
0.0,0.0,0.0,0.0,1.0,0.0,0.0,0.0,0.0,0.0,0.0,0.0,0.0,0.0,0.0,0.0,0.0,0.0,0.0,0.0,0.0,0.0,0.0,0.0,0.0,0.0,0.0,0.0,1.58275,-0.731174,-0.60703,-0.527446,-0.709442,-0.392117,-0.791743,-0.638219,-0.201129,0.0,3.6174,1.64877,0.261106,-0.0544191
0.0,0.0,0.0,0.0,1.0,0.0,0.0,0.0,0.0,0.0,0.0,0.0,0.0,0.0,0.0,0.0,0.0,0.0,0.0,0.0,0.0,0.0,0.0,0.0,0.0,0.0,0.0,0.0,1.58275,-0.731174,-0.60703,-0.527446,-0.709442,-0.392117,-0.791743,-0.638219,-0.201129,0.0,3.6174,1.82277,0.261106,-0.0544191
0.0,0.0,0.0,0.0,1.0,0.0,0.0,0.0,0.0,0.0,0.0,0.0,0.0,0.0,0.0,0.0,0.0,0.0,0.0,0.0,0.0,0.0,0.0,0.0,0.0,0.0,0.0,0.0,1.58275,-0.731174,-0.60703,-0.527446,-0.709442,-0.392117,-0.791743,-0.638219,-0.201129,0.0,3.6174,-0.54362,0.261106,-0.0544191
0.0,0.0,0.0,0.0,1.0,0.0,0.0,0.0,0.0,0.0,0.0,0.0,0.0,0.0,0.0,0.0,0.0,0.0,0.0,0.0,0.0,0.0,0.0,0.0,0.0,0.0,0.0,0.0,1.58275,-0.731174,-0.60703,-0.527446,-0.709442,-0.392117,-0.791743,-0.638219,-0.201129,0.0,3.6174,0.326377,0.261106,-0.0544191
0.0,0.0,0.0,0.0,1.0,0.0,0.0,0.0,0.0,0.0,0.0,0.0,0.0,0.0,0.0,0.0,0.0,0.0,0.0,0.0,0.0,0.0,0.0,0.0,0.0,0.0,0.0,0.0,1.58275,-0.731174,-0.60703,-0.527446,-0.709442,-0.392117,-0.791743,-0.638219,-0.201129,0.0,3.6174,0.952775,0.261106,-0.0544191
0.0,0.0,0.0,0.0,0.0,1.0,0.0,0.0,0.0,0.0,0.0,0.0,0.0,0.0,0.0,0.0,0.0,0.0,0.0,0.0,0.0,0.0,0.0,0.0,0.0,0.0,0.0,0.0,1.96787,-1.66768,-1.2033,-0.394811,0.231238,-0.392117,-0.748179,-0.638219,-0.201129,0.0,2.38155,1.75317,0.188703,-0.105424
0.0,0.0,0.0,0.0,0.0,1.0,0.0,0.0,0.0,0.0,0.0,0.0,0.0,0.0,0.0,0.0,0.0,0.0,0.0,0.0,0.0,0.0,0.0,0.0,0.0,0.0,0.0,0.0,1.96787,-1.66768,-1.2033,-0.394811,0.231238,-0.392117,-0.748179,-0.638219,-0.201129,0.0,2.38155,-0.43922,0.188703,-0.105424
0.0,0.0,0.0,0.0,0.0,1.0,0.0,0.0,0.0,0.0,0.0,0.0,0.0,0.0,0.0,0.0,0.0,0.0,0.0,0.0,0.0,0.0,0.0,0.0,0.0,0.0,0.0,0.0,1.96787,-1.66768,-1.2033,-0.394811,0.231238,-0.392117,-0.748179,-0.638219,-0.201129,0.0,2.38155,0.187178,0.188703,-0.105424
0.0,0.0,0.0,0.0,0.0,1.0,0.0,0.0,0.0,0.0,0.0,0.0,0.0,0.0,0.0,0.0,0.0,0.0,0.0,0.0,0.0,0.0,0.0,0.0,0.0,0.0,0.0,0.0,1.96787,-1.66768,-1.2033,-0.394811,0.231238,-0.392117,-0.748179,-0.638219,-0.201129,0.0,2.38155,1.02238,0.188703,-0.105424
0.0,0.0,0.0,0.0,0.0,1.0,0.0,0.0,0.0,0.0,0.0,0.0,0.0,0.0,0.0,0.0,0.0,0.0,0.0,0.0,0.0,0.0,0.0,0.0,0.0,0.0,0.0,0.0,1.96787,-1.66768,-1.2033,-0.394811,0.231238,-0.392117,-0.748179,-0.638219,-0.201129,0.0,2.38155,1.43997,0.188703,-0.105424
0.0,0.0,0.0,0.0,0.0,1.0,0.0,0.0,0.0,0.0,0.0,0.0,0.0,0.0,0.0,0.0,0.0,0.0,0.0,0.0,0.0,0.0,0.0,0.0,0.0,0.0,0.0,0.0,1.96787,-1.66768,-1.2033,-0.394811,0.231238,-0.392117,-0.748179,-0.638219,-0.201129,0.0,2.38155,1.71837,0.188703,-0.105424
0.0,0.0,0.0,0.0,0.0,1.0,0.0,0.0,0.0,0.0,0.0,0.0,0.0,0.0,0.0,0.0,0.0,0.0,0.0,0.0,0.0,0.0,0.0,0.0,0.0,0.0,0.0,0.0,1.96787,-1.66768,-1.2033,-0.394811,0.231238,-0.392117,-0.748179,-0.638219,-0.201129,0.0,2.38155,-2.59681,0.188703,-0.105424
0.0,0.0,0.0,0.0,0.0,1.0,0.0,0.0,0.0,0.0,0.0,0.0,0.0,0.0,0.0,0.0,0.0,0.0,0.0,0.0,0.0,0.0,0.0,0.0,0.0,0.0,0.0,0.0,2.69532,-0.618793,-0.60703,-0.394811,-0.591857,-0.392117,-0.791743,-0.638219,-0.201129,0.0,-0.337311,1.09197,0.188703,-0.105424
0.0,0.0,0.0,0.0,0.0,1.0,0.0,0.0,0.0,0.0,0.0,0.0,0.0,0.0,0.0,0.0,0.0,0.0,0.0,0.0,0.0,0.0,0.0,0.0,0.0,0.0,0.0,0.0,2.69532,-0.618793,-0.60703,-0.394811,-0.591857,-0.392117,-0.791743,-0.638219,-0.201129,0.0,-0.337311,1.37037,0.188703,-0.105424
0.0,0.0,0.0,0.0,0.0,1.0,0.0,0.0,0.0,0.0,0.0,0.0,0.0,0.0,0.0,0.0,0.0,0.0,0.0,0.0,0.0,0.0,0.0,0.0,0.0,0.0,0.0,0.0,2.69532,-0.618793,-0.60703,-0.394811,-0.591857,-0.392117,-0.791743,-0.638219,-0.201129,0.0,-0.337311,1.68357,0.188703,-0.105424
0.0,0.0,0.0,0.0,0.0,1.0,0.0,0.0,0.0,0.0,0.0,0.0,0.0,0.0,0.0,0.0,0.0,0.0,0.0,0.0,0.0,0.0,0.0,0.0,0.0,0.0,0.0,0.0,2.69532,-0.618793,-0.60703,-0.394811,-0.591857,-0.392117,-0.791743,-0.638219,-0.201129,0.0,-0.337311,-1.20482,0.188703,-0.105424
0.0,0.0,0.0,0.0,0.0,1.0,0.0,0.0,0.0,0.0,0.0,0.0,0.0,0.0,0.0,0.0,0.0,0.0,0.0,0.0,0.0,0.0,0.0,0.0,0.0,0.0,0.0,0.0,2.69532,-0.618793,-0.60703,-0.394811,-0.591857,-0.392117,-0.791743,-0.638219,-0.201129,0.0,-0.337311,-0.30002,0.188703,-0.105424
0.0,0.0,0.0,0.0,0.0,1.0,0.0,0.0,0.0,0.0,0.0,0.0,0.0,0.0,0.0,0.0,0.0,0.0,0.0,0.0,0.0,0.0,0.0,0.0,0.0,0.0,0.0,0.0,2.69532,-0.618793,-0.60703,-0.394811,-0.591857,-0.392117,-0.791743,-0.638219,-0.201129,0.0,-0.337311,0.604776,0.188703,-0.105424
0.0,0.0,0.0,0.0,0.0,1.0,0.0,0.0,0.0,0.0,0.0,0.0,0.0,0.0,0.0,0.0,0.0,0.0,0.0,0.0,0.0,0.0,0.0,0.0,0.0,0.0,0.0,0.0,2.69532,-0.618793,-0.60703,-0.394811,-0.591857,-0.392117,-0.791743,-0.638219,-0.201129,0.0,-0.337311,-2.59681,0.188703,-0.105424